stream_type,timestamp_ms,sensor_nanos,accel_x,accel_y,accel_z,gyro_x,gyro_y,gyro_z,mag_x,mag_y,mag_z,has_fix,latitude,longitude,altitude,accuracy,speed,bearing,sats_view,sats_used,registered,cell_type,cell_id,mcc,mnc,lac,tac,pci,arfcn,signal_dbm,signal_metric,signal_level,operator
SENSOR,1789661771097,41501296696119,0.14955142,0.23539393,9.859925,0.0010690133,0.0032070398,-6.108647E-4,-56.025,-15.000001,2.8500001,,,,,,,,,,,,,,,,,,
SENSOR,1789661771097,41501351211275,0.14955142,0.23539393,9.859925,0.0038179045,0.009162971,-0.0010690133,-56.025,-15.000001,2.8500001,,,,,,,,,,,,,,,,,,
CELLULAR,1789661771102,,,,,,,,,,,,,,true,NR,4298047490,405,869,,75,403,634080,-108,NR_SS_RSRP,3,
SENSOR,1789661771110,41501364496015,0.14955142,0.23539393,9.859925,-0.005955931,-0.010995565,1.5271618E-4,-56.025,-15.000001,2.8500001,,,,,,,,,,,,,,,,,,
GNSS,1789661771104,,true,11.0554046,76.9271183,374.70001220703125,100.0,,,51,0,,,,,,,,,,,,,
SENSOR,1789661771114,41501364496015,0.14955142,0.23539393,9.859925,-0.005955931,-0.010995565,1.5271618E-4,-54.975002,-14.700001,2.25,,,,,,,,,,,,,,,,,,
SENSOR,1789661771183,41501400877994,0.148355,0.24227329,9.861719,-0.005955931,-0.010995565,1.5271618E-4,-54.975002,-14.700001,2.25,,,,,,,,,,,,,,,,,,
SENSOR,1789661771208,41501464496015,0.148355,0.24227329,9.861719,0.0038179045,0.007788525,-0.0010690133,-54.975002,-14.700001,2.25,,,,,,,,,,,,,,,,,,
SENSOR,1789661771217,41501464496015,0.148355,0.24227329,9.861719,0.0038179045,0.007788525,-0.0010690133,-54.975002,-14.475,2.4750001,,,,,,,,,,,,,,,,,,
SENSOR,1789661771287,41501505059921,0.1468595,0.25004998,9.868001,0.0038179045,0.007788525,-0.0010690133,-54.975002,-14.475,2.4750001,,,,,,,,,,,,,,,,,,
SENSOR,1789661771306,41501564496015,0.1468595,0.25004998,9.868001,-0.0022907427,-0.0029016074,1.5271618E-4,-54.975002,-14.475,2.4750001,,,,,,,,,,,,,,,,,,
SENSOR,1789661771314,41501564496015,0.1468595,0.25004998,9.868001,-0.0022907427,-0.0029016074,1.5271618E-4,-56.025,-14.625001,5.025,,,,,,,,,,,,,,,,,,
SENSOR,1789661771393,41501609241796,0.15074782,0.23778675,9.860224,-0.0022907427,-0.0029016074,1.5271618E-4,-56.025,-14.625001,5.025,,,,,,,,,,,,,,,,,,
SENSOR,1789661771409,41501664496015,0.15074782,0.23778675,9.860224,0.0,-9.162971E-4,1.5271618E-4,-56.025,-14.625001,5.025,,,,,,,,,,,,,,,,,,
SENSOR,1789661771418,41501664496015,0.15074782,0.23778675,9.860224,0.0,-9.162971E-4,1.5271618E-4,-56.025,-14.700001,4.7250004,,,,,,,,,,,,,,,,,,
SENSOR,1789661771496,41501713423671,0.14895321,0.23599213,9.860523,0.0,-9.162971E-4,1.5271618E-4,-56.025,-14.700001,4.7250004,,,,,,,,,,,,,,,,,,
SENSOR,1789661771504,41501764496015,0.14895321,0.23599213,9.860523,9.162971E-4,0.0013744456,1.5271618E-4,-56.025,-14.700001,4.7250004,,,,,,,,,,,,,,,,,,
SENSOR,1789661771515,41501764496015,0.14895321,0.23599213,9.860523,9.162971E-4,0.0013744456,1.5271618E-4,-55.800003,-14.250001,5.1000004,,,,,,,,,,,,,,,,,,
SENSOR,1789661771601,41501817605546,0.14925231,0.24107689,9.860822,9.162971E-4,0.0013744456,1.5271618E-4,-55.800003,-14.250001,5.1000004,,,,,,,,,,,,,,,,,,
SENSOR,1789661771616,41501864496015,0.14925231,0.24107689,9.860822,1.5271618E-4,6.108647E-4,1.5271618E-4,-55.800003,-14.250001,5.1000004,,,,,,,,,,,,,,,,,,
SENSOR,1789661771617,41501864496015,0.14925231,0.24107689,9.860822,1.5271618E-4,6.108647E-4,1.5271618E-4,-56.550003,-14.85,5.1000004,,,,,,,,,,,,,,,,,,
SENSOR,1789661771704,41501921787421,0.1480559,0.2434697,9.860523,1.5271618E-4,6.108647E-4,1.5271618E-4,-56.550003,-14.85,5.1000004,,,,,,,,,,,,,,,,,,
SENSOR,1789661771704,41501964496015,0.1480559,0.2434697,9.860523,-0.0010690133,6.108647E-4,-0.0010690133,-56.550003,-14.85,5.1000004,,,,,,,,,,,,,,,,,,
SENSOR,1789661771715,41501964496015,0.1480559,0.2434697,9.860523,-0.0010690133,6.108647E-4,-0.0010690133,-55.425003,-15.075001,2.8500001,,,,,,,,,,,,,,,,,,
SENSOR,1789661771809,41502064496015,0.1480559,0.2434697,9.860523,-9.162971E-4,-4.5814854E-4,-0.0010690133,-55.425003,-15.075001,2.8500001,,,,,,,,,,,,,,,,,,
SENSOR,1789661771809,41502025969296,0.15074782,0.23419751,9.860523,-9.162971E-4,-4.5814854E-4,-0.0010690133,-55.425003,-15.075001,2.8500001,,,,,,,,,,,,,,,,,,
SENSOR,1789661771819,41502064496015,0.15074782,0.23419751,9.860523,-9.162971E-4,-4.5814854E-4,-0.0010690133,-55.800003,-14.775001,4.125,,,,,,,,,,,,,,,,,,
SENSOR,1789661771904,41502164496015,0.15074782,0.23419751,9.860523,-3.0543236E-4,-6.108647E-4,1.5271618E-4,-55.800003,-14.775001,4.125,,,,,,,,,,,,,,,,,,
SENSOR,1789661771913,41502130151171,0.14656039,0.24227329,9.862617,-3.0543236E-4,-6.108647E-4,1.5271618E-4,-55.800003,-14.775001,4.125,,,,,,,,,,,,,,,,,,
SENSOR,1789661771913,41502164496015,0.14656039,0.24227329,9.862617,-3.0543236E-4,-6.108647E-4,1.5271618E-4,-56.475002,-14.85,5.025,,,,,,,,,,,,,,,,,,
SENSOR,1789661772008,41502264496015,0.14656039,0.24227329,9.862617,1.5271618E-4,6.108647E-4,-0.0010690133,-56.475002,-14.85,5.025,,,,,,,,,,,,,,,,,,
SENSOR,1789661772017,41502234333046,0.1477568,0.23688944,9.862019,1.5271618E-4,6.108647E-4,-0.0010690133,-56.475002,-14.85,5.025,,,,,,,,,,,,,,,,,,
SENSOR,1789661772017,41502264496015,0.1477568,0.23688944,9.862019,1.5271618E-4,6.108647E-4,-0.0010690133,-55.800003,-14.925,4.425,,,,,,,,,,,,,,,,,,
SENSOR,1789661772104,41502364496015,0.1477568,0.23688944,9.862019,-7.635809E-4,-0.0012217294,-0.0010690133,-55.800003,-14.925,4.425,,,,,,,,,,,,,,,,,,
SENSOR,1789661772113,41502364496015,0.1477568,0.23688944,9.862019,-7.635809E-4,-0.0012217294,-0.0010690133,-56.4,-14.775001,5.8500004,,,,,,,,,,,,,,,,,,
SENSOR,1789661772128,41502338514921,0.1486541,0.23898315,9.862916,-7.635809E-4,-0.0012217294,-0.0010690133,-56.4,-14.775001,5.8500004,,,,,,,,,,,,,,,,,,
CELLULAR,1789661772128,,,,,,,,,,,,,,true,NR,4298047490,405,869,,75,403,634080,-108,NR_SS_RSRP,3,
GNSS,1789661772145,,true,11.0554046,76.9271183,374.70001220703125,100.0,,,55,0,,,,,,,,,,,,,
SENSOR,1789661772212,41502464496015,0.1486541,0.23898315,9.862916,0.005345066,0.012217294,0.0013744456,-56.4,-14.775001,5.8500004,,,,,,,,,,,,,,,,,,
SENSOR,1789661772217,41502464496015,0.1486541,0.23898315,9.862916,0.005345066,0.012217294,0.0013744456,-55.95,-15.000001,5.4750004,,,,,,,,,,,,,,,,,,
SENSOR,1789661772224,41502442696744,0.15014961,0.23898315,9.8632145,0.005345066,0.012217294,0.0013744456,-55.95,-15.000001,5.4750004,,,,,,,,,,,,,,,,,,
SENSOR,1789661772304,41502564496015,0.15014961,0.23898315,9.8632145,0.0013744456,0.0039706207,-1.5271618E-4,-55.95,-15.000001,5.4750004,,,,,,,,,,,,,,,,,,
SENSOR,1789661772312,41502564496015,0.15014961,0.23898315,9.8632145,0.0013744456,0.0039706207,-1.5271618E-4,-55.125004,-14.85,2.5500002,,,,,,,,,,,,,,,,,,
SENSOR,1789661772328,41502546878619,0.14626129,0.23988047,9.860822,0.0013744456,0.0039706207,-1.5271618E-4,-55.125004,-14.85,2.5500002,,,,,,,,,,,,,,,,,,
SENSOR,1789661772407,41502664496015,0.14626129,0.23988047,9.860822,1.5271618E-4,0.0018325942,-7.635809E-4,-55.125004,-14.85,2.5500002,,,,,,,,,,,,,,,,,,
SENSOR,1789661772416,41502664496015,0.14626129,0.23988047,9.860822,1.5271618E-4,0.0018325942,-7.635809E-4,-55.575,-14.400001,3.3000002,,,,,,,,,,,,,,,,,,
SENSOR,1789661772433,41502651060494,0.14656039,0.24496523,9.865309,1.5271618E-4,0.0018325942,-7.635809E-4,-55.575,-14.400001,3.3000002,,,,,,,,,,,,,,,,,,
SENSOR,1789661772503,41502764496015,0.14656039,0.24496523,9.865309,-7.635809E-4,-3.0543236E-4,1.5271618E-4,-55.575,-14.400001,3.3000002,,,,,,,,,,,,,,,,,,
SENSOR,1789661772511,41502764496015,0.14656039,0.24496523,9.865309,-7.635809E-4,-3.0543236E-4,1.5271618E-4,-55.575,-15.150001,3.7500002,,,,,,,,,,,,,,,,,,
SENSOR,1789661772537,41502755242317,0.1486541,0.24227329,9.863514,-7.635809E-4,-3.0543236E-4,1.5271618E-4,-55.575,-15.150001,3.7500002,,,,,,,,,,,,,,,,,,
SENSOR,1789661772607,41502864496015,0.1486541,0.24227329,9.863514,-0.0015271618,-0.0010690133,9.162971E-4,-55.575,-15.150001,3.7500002,,,,,,,,,,,,,,,,,,
SENSOR,1789661772615,41502864496015,0.1486541,0.24227329,9.863514,-0.0015271618,-0.0010690133,9.162971E-4,-56.025,-14.85,3.9,,,,,,,,,,,,,,,,,,
SENSOR,1789661772641,41502859424192,0.14895321,0.2431706,9.862019,-0.0015271618,-0.0010690133,9.162971E-4,-56.025,-14.85,3.9,,,,,,,,,,,,,,,,,,
SENSOR,1789661772702,41502964496015,0.14895321,0.2431706,9.862019,-9.162971E-4,-4.5814854E-4,-1.5271618E-4,-56.025,-14.85,3.9,,,,,,,,,,,,,,,,,,
SENSOR,1789661772711,41502964496015,0.14895321,0.2431706,9.862019,-9.162971E-4,-4.5814854E-4,-1.5271618E-4,-55.800003,-15.000001,3.9,,,,,,,,,,,,,,,,,,
SENSOR,1789661772746,41502963606015,0.15014961,0.22941187,9.859626,-9.162971E-4,-4.5814854E-4,-1.5271618E-4,-55.800003,-15.000001,3.9,,,,,,,,,,,,,,,,,,
SENSOR,1789661772807,41503064496015,0.15014961,0.22941187,9.859626,1.5271618E-4,0.0018325942,-0.0010690133,-55.800003,-15.000001,3.9,,,,,,,,,,,,,,,,,,
SENSOR,1789661772815,41503064496015,0.15014961,0.22941187,9.859626,1.5271618E-4,0.0018325942,-0.0010690133,-55.500004,-14.625001,4.125,,,,,,,,,,,,,,,,,,
SENSOR,1789661772849,41503067787837,0.15014961,0.23748764,9.865309,1.5271618E-4,0.0018325942,-0.0010690133,-55.500004,-14.625001,4.125,,,,,,,,,,,,,,,,,,
SENSOR,1789661772903,41503164496015,0.15014961,0.23748764,9.865309,-0.0,-6.108647E-4,-9.162971E-4,-55.500004,-14.625001,4.125,,,,,,,,,,,,,,,,,,
GNSS,1789661773000,,true,11.05524736,76.92712574,379.00927734375,9.790694,0.0,,55,0,,,,,,,,,,,,,
SENSOR,1789661772920,41503164496015,0.15014961,0.23748764,9.865309,-0.0,-6.108647E-4,-9.162971E-4,-56.100002,-14.700001,5.175,,,,,,,,,,,,,,,,,,
SENSOR,1789661772954,41503171969660,0.1471586,0.24107689,9.862916,-0.0,-6.108647E-4,-9.162971E-4,-56.100002,-14.700001,5.175,,,,,,,,,,,,,,,,,,
SENSOR,1789661773006,41503264496015,0.1471586,0.24107689,9.862916,-0.0010690133,-6.108647E-4,1.5271618E-4,-56.100002,-14.700001,5.175,,,,,,,,,,,,,,,,,,
SENSOR,1789661773015,41503264496015,0.1471586,0.24107689,9.862916,-0.0010690133,-6.108647E-4,1.5271618E-4,-55.425003,-14.775001,4.65,,,,,,,,,,,,,,,,,,
SENSOR,1789661773058,41503276151483,0.15014961,0.24077778,9.861719,-0.0010690133,-6.108647E-4,1.5271618E-4,-55.425003,-14.775001,4.65,,,,,,,,,,,,,,,,,,
SENSOR,1789661773101,41503364496015,0.15014961,0.24077778,9.861719,1.5271618E-4,6.108647E-4,1.5271618E-4,-55.425003,-14.775001,4.65,,,,,,,,,,,,,,,,,,
SENSOR,1789661773119,41503364496015,0.15014961,0.24077778,9.861719,1.5271618E-4,6.108647E-4,1.5271618E-4,-56.175003,-14.625001,5.175,,,,,,,,,,,,,,,,,,
CELLULAR,1789661773145,,,,,,,,,,,,,,true,NR,4298047490,405,869,,75,403,634080,-108,NR_SS_RSRP,3,
SENSOR,1789661773162,41503380333306,0.15044872,0.24077778,9.862617,1.5271618E-4,6.108647E-4,1.5271618E-4,-56.175003,-14.625001,5.175,,,,,,,,,,,,,,,,,,
SENSOR,1789661773206,41503464496015,0.15044872,0.24077778,9.862617,1.5271618E-4,6.108647E-4,-0.0010690133,-56.175003,-14.625001,5.175,,,,,,,,,,,,,,,,,,
SENSOR,1789661773214,41503464496015,0.15044872,0.24077778,9.862617,1.5271618E-4,6.108647E-4,-0.0010690133,-56.100002,-15.000001,4.125,,,,,,,,,,,,,,,,,,
SENSOR,1789661773266,41503484515129,0.1486541,0.24017957,9.860523,1.5271618E-4,6.108647E-4,-0.0010690133,-56.100002,-15.000001,4.125,,,,,,,,,,,,,,,,,,
SENSOR,1789661773301,41503564496015,0.1486541,0.24017957,9.860523,-0.0010690133,6.108647E-4,1.5271618E-4,-56.100002,-15.000001,4.125,,,,,,,,,,,,,,,,,,
SENSOR,1789661773319,41503564496015,0.1486541,0.24017957,9.860523,-0.0010690133,6.108647E-4,1.5271618E-4,-56.025,-14.400001,4.875,,,,,,,,,,,,,,,,,,
SENSOR,1789661773371,41503588696952,0.15134603,0.23718855,9.862617,-0.0010690133,6.108647E-4,1.5271618E-4,-56.025,-14.400001,4.875,,,,,,,,,,,,,,,,,,
SENSOR,1789661773405,41503664496015,0.15134603,0.23718855,9.862617,-4.5814854E-4,-0.0012217294,1.5271618E-4,-56.025,-14.400001,4.875,,,,,,,,,,,,,,,,,,
SENSOR,1789661773414,41503664496015,0.15134603,0.23718855,9.862617,-4.5814854E-4,-0.0012217294,1.5271618E-4,-55.95,-14.775001,5.175,,,,,,,,,,,,,,,,,,
SENSOR,1789661773475,41503692878723,0.14925231,0.24017957,9.863514,-4.5814854E-4,-0.0012217294,1.5271618E-4,-55.95,-14.775001,5.175,,,,,,,,,,,,,,,,,,
SENSOR,1789661773502,41503764496015,0.14925231,0.24017957,9.863514,1.5271618E-4,6.108647E-4,1.5271618E-4,-55.95,-14.775001,5.175,,,,,,,,,,,,,,,,,,
SENSOR,1789661773520,41503764496015,0.14925231,0.24017957,9.863514,1.5271618E-4,6.108647E-4,1.5271618E-4,-56.625004,-14.775001,5.3250003,,,,,,,,,,,,,,,,,,
SENSOR,1789661773580,41503797060546,0.15134603,0.23928227,9.863514,1.5271618E-4,6.108647E-4,1.5271618E-4,-56.625004,-14.775001,5.3250003,,,,,,,,,,,,,,,,,,
SENSOR,1789661773605,41503864496015,0.15134603,0.23928227,9.863514,1.5271618E-4,-0.0,1.5271618E-4,-56.625004,-14.775001,5.3250003,,,,,,,,,,,,,,,,,,
SENSOR,1789661773614,41503864496015,0.15134603,0.23928227,9.863514,1.5271618E-4,-0.0,1.5271618E-4,-55.95,-14.925,4.7250004,,,,,,,,,,,,,,,,,,
SENSOR,1789661773684,41503901242317,0.15014961,0.24107689,9.862916,1.5271618E-4,-0.0,1.5271618E-4,-55.95,-14.925,4.7250004,,,,,,,,,,,,,,,,,,
SENSOR,1789661773710,41503964496015,0.15014961,0.24107689,9.862916,1.5271618E-4,-6.108647E-4,1.5271618E-4,-55.95,-14.925,4.7250004,,,,,,,,,,,,,,,,,,
SENSOR,1789661773720,41503964496015,0.15014961,0.24107689,9.862916,1.5271618E-4,-6.108647E-4,1.5271618E-4,-56.325,-14.625001,5.3250003,,,,,,,,,,,,,,,,,,
SENSOR,1789661773787,41504005424140,0.15134603,0.23898315,9.860523,1.5271618E-4,-6.108647E-4,1.5271618E-4,-56.325,-14.625001,5.3250003,,,,,,,,,,,,,,,,,,
SENSOR,1789661773805,41504064496015,0.15134603,0.23898315,9.860523,-4.5814854E-4,6.108647E-4,-0.0010690133,-56.325,-14.625001,5.3250003,,,,,,,,,,,,,,,,,,
SENSOR,1789661773814,41504064496015,0.15134603,0.23898315,9.860523,-4.5814854E-4,6.108647E-4,-0.0010690133,-56.4,-14.925,5.025,,,,,,,,,,,,,,,,,,
SENSOR,1789661773892,41504109605910,0.14955142,0.23868406,9.861121,-4.5814854E-4,6.108647E-4,-0.0010690133,-56.4,-14.925,5.025,,,,,,,,,,,,,,,,,,
GNSS,1789661773899,,true,11.05524736,76.92712574,379.00927734375,9.790694,0.0,,94,14,,,,,,,,,,,,,
GNSS,1789661774000,,true,11.05527589,76.92710642,376.33856201171875,4.6275434,0.0,,94,14,,,,,,,,,,,,,
SENSOR,1789661773908,41504164496015,0.14955142,0.23868406,9.861121,1.5271618E-4,-6.108647E-4,0.0,-56.4,-14.925,5.025,,,,,,,,,,,,,,,,,,
SENSOR,1789661773917,41504164496015,0.14955142,0.23868406,9.861121,1.5271618E-4,-6.108647E-4,0.0,-54.45,-14.85,2.325,,,,,,,,,,,,,,,,,,
SENSOR,1789661773997,41504213787681,0.15044872,0.24077778,9.862916,1.5271618E-4,-6.108647E-4,0.0,-54.45,-14.85,2.325,,,,,,,,,,,,,,,,,,
SENSOR,1789661774004,41504264496015,0.15044872,0.24077778,9.862916,-4.5814854E-4,0.0,1.5271618E-4,-54.45,-14.85,2.325,,,,,,,,,,,,,,,,,,
SENSOR,1789661774014,41504264496015,0.15044872,0.24077778,9.862916,-4.5814854E-4,0.0,1.5271618E-4,-55.425003,-15.150001,4.125,,,,,,,,,,,,,,,,,,
SENSOR,1789661774100,41504317969452,0.14895321,0.23958136,9.862916,-4.5814854E-4,0.0,1.5271618E-4,-55.425003,-15.150001,4.125,,,,,,,,,,,,,,,,,,
SENSOR,1789661774108,41504364496015,0.14895321,0.23958136,9.862916,1.5271618E-4,-6.108647E-4,0.0,-55.425003,-15.150001,4.125,,,,,,,,,,,,,,,,,,
SENSOR,1789661774118,41504364496015,0.14895321,0.23958136,9.862916,1.5271618E-4,-6.108647E-4,0.0,-54.675003,-14.475,2.8500001,,,,,,,,,,,,,,,,,,
CELLULAR,1789661774158,,,,,,,,,,,,,,true,NR,4298047490,405,869,,75,403,634080,-108,NR_SS_RSRP,3,
SENSOR,1789661774205,41504422151223,0.15014961,0.23898315,9.861121,1.5271618E-4,-6.108647E-4,0.0,-54.675003,-14.475,2.8500001,,,,,,,,,,,,,,,,,,
SENSOR,1789661774206,41504464496015,0.15014961,0.23898315,9.861121,1.5271618E-4,-1.5271618E-4,-6.108647E-4,-54.675003,-14.475,2.8500001,,,,,,,,,,,,,,,,,,
SENSOR,1789661774214,41504464496015,0.15014961,0.23898315,9.861121,1.5271618E-4,-1.5271618E-4,-6.108647E-4,-56.4,-14.85,5.25,,,,,,,,,,,,,,,,,,
SENSOR,1789661774309,41504564496015,0.15014961,0.23898315,9.861121,1.5271618E-4,4.5814854E-4,1.5271618E-4,-56.4,-14.85,5.25,,,,,,,,,,,,,,,,,,
SENSOR,1789661774310,41504526332994,0.15014961,0.23988047,9.862318,1.5271618E-4,4.5814854E-4,1.5271618E-4,-56.4,-14.85,5.25,,,,,,,,,,,,,,,,,,
SENSOR,1789661774319,41504564496015,0.15014961,0.23988047,9.862318,1.5271618E-4,4.5814854E-4,1.5271618E-4,-55.875004,-14.55,4.5,,,,,,,,,,,,,,,,,,
SENSOR,1789661774405,41504664496015,0.15014961,0.23988047,9.862318,1.5271618E-4,-6.108647E-4,-3.0543236E-4,-55.875004,-14.55,4.5,,,,,,,,,,,,,,,,,,
SENSOR,1789661774413,41504630514765,0.15074782,0.23988047,9.865009,1.5271618E-4,-6.108647E-4,-3.0543236E-4,-55.875004,-14.55,4.5,,,,,,,,,,,,,,,,,,
SENSOR,1789661774415,41504664496015,0.15074782,0.23988047,9.865009,1.5271618E-4,-6.108647E-4,-3.0543236E-4,-55.350002,-14.925,3.45,,,,,,,,,,,,,,,,,,
SENSOR,1789661774509,41504764496015,0.15074782,0.23988047,9.865009,-9.162971E-4,6.108647E-4,1.5271618E-4,-55.350002,-14.925,3.45,,,,,,,,,,,,,,,,,,
SENSOR,1789661774517,41504734696535,0.15044872,0.24137598,9.862019,-9.162971E-4,6.108647E-4,1.5271618E-4,-55.350002,-14.925,3.45,,,,,,,,,,,,,,,,,,
SENSOR,1789661774518,41504764496015,0.15044872,0.24137598,9.862019,-9.162971E-4,6.108647E-4,1.5271618E-4,-55.875004,-14.55,4.425,,,,,,,,,,,,,,,,,,
SENSOR,1789661774604,41504864496015,0.15044872,0.24137598,9.862019,1.5271618E-4,-3.0543236E-4,-0.0010690133,-55.875004,-14.55,4.425,,,,,,,,,,,,,,,,,,
SENSOR,1789661774612,41504864496015,0.15044872,0.24137598,9.862019,1.5271618E-4,-3.0543236E-4,-0.0010690133,-56.100002,-14.475,4.425,,,,,,,,,,,,,,,,,,
SENSOR,1789661774621,41504838878254,0.14925231,0.23958136,9.862617,1.5271618E-4,-3.0543236E-4,-0.0010690133,-56.100002,-14.475,4.425,,,,,,,,,,,,,,,,,,
SENSOR,1789661774708,41504964496015,0.14925231,0.23958136,9.862617,1.5271618E-4,-6.108647E-4,1.5271618E-4,-56.100002,-14.475,4.425,,,,,,,,,,,,,,,,,,
SENSOR,1789661774716,41504964496015,0.14925231,0.23958136,9.862617,1.5271618E-4,-6.108647E-4,1.5271618E-4,-55.800003,-14.775001,4.3500004,,,,,,,,,,,,,,,,,,
SENSOR,1789661774725,41504943060025,0.14895321,0.2425724,9.864112,1.5271618E-4,-6.108647E-4,1.5271618E-4,-55.800003,-14.775001,4.3500004,,,,,,,,,,,,,,,,,,
SENSOR,1789661774804,41505064496015,0.14895321,0.2425724,9.864112,1.5271618E-4,-6.108647E-4,-3.0543236E-4,-55.800003,-14.775001,4.3500004,,,,,,,,,,,,,,,,,,
SENSOR,1789661774812,41505064496015,0.14895321,0.2425724,9.864112,1.5271618E-4,-6.108647E-4,-3.0543236E-4,-55.95,-14.925,5.025,,,,,,,,,,,,,,,,,,
SENSOR,1789661774829,41505047241744,0.14955142,0.23958136,9.864711,1.5271618E-4,-6.108647E-4,-3.0543236E-4,-55.95,-14.925,5.025,,,,,,,,,,,,,,,,,,
GNSS,1789661774903,,true,11.05527589,76.92710642,376.33856201171875,4.6275434,0.0,,94,24,,,,,,,,,,,,,
SENSOR,1789661774916,41505164496015,0.14955142,0.23958136,9.864711,0.0013744456,-3.0543236E-4,1.5271618E-4,-55.95,-14.925,5.025,,,,,,,,,,,,,,,,,,
GNSS,1789661775000,,true,11.05528561,76.92710974,378.70867919921875,3.9020376,0.0,,94,24,,,,,,,,,,,,,
SENSOR,1789661774918,41505164496015,0.14955142,0.23958136,9.864711,0.0013744456,-3.0543236E-4,1.5271618E-4,-55.725002,-14.775001,5.1000004,,,,,,,,,,,,,,,,,,
SENSOR,1789661774933,41505151423462,0.14925231,0.23988047,9.864112,0.0013744456,-3.0543236E-4,1.5271618E-4,-55.725002,-14.775001,5.1000004,,,,,,,,,,,,,,,,,,
SENSOR,1789661775004,41505264496015,0.14925231,0.23988047,9.864112,1.5271618E-4,-3.0543236E-4,-1.5271618E-4,-55.725002,-14.775001,5.1000004,,,,,,,,,,,,,,,,,,
SENSOR,1789661775014,41505264496015,0.14925231,0.23988047,9.864112,1.5271618E-4,-3.0543236E-4,-1.5271618E-4,-56.025,-14.700001,4.875,,,,,,,,,,,,,,,,,,
SENSOR,1789661775038,41505255605181,0.15014961,0.23599213,9.861719,1.5271618E-4,-3.0543236E-4,-1.5271618E-4,-56.025,-14.700001,4.875,,,,,,,,,,,,,,,,,,
SENSOR,1789661775107,41505364496015,0.15014961,0.23599213,9.861719,1.5271618E-4,6.108647E-4,-0.0010690133,-56.025,-14.700001,4.875,,,,,,,,,,,,,,,,,,
SENSOR,1789661775116,41505364496015,0.15014961,0.23599213,9.861719,1.5271618E-4,6.108647E-4,-0.0010690133,-56.550003,-14.925,6.0,,,,,,,,,,,,,,,,,,
SENSOR,1789661775143,41505359786900,0.14955142,0.23330021,9.861421,1.5271618E-4,6.108647E-4,-0.0010690133,-56.550003,-14.925,6.0,,,,,,,,,,,,,,,,,,
CELLULAR,1789661775180,,,,,,,,,,,,,,true,NR,4298047490,405,869,,75,403,634080,-108,NR_SS_RSRP,3,
SENSOR,1789661775203,41505464496015,0.14955142,0.23330021,9.861421,-0.0010690133,-0.0015271618,1.5271618E-4,-56.550003,-14.925,6.0,,,,,,,,,,,,,,,,,,
SENSOR,1789661775212,41505464496015,0.14955142,0.23330021,9.861421,-0.0010690133,-0.0015271618,1.5271618E-4,-55.050003,-14.700001,3.45,,,,,,,,,,,,,,,,,,
SENSOR,1789661775246,41505463968619,0.1471586,0.2515455,9.866804,-0.0010690133,-0.0015271618,1.5271618E-4,-55.050003,-14.700001,3.45,,,,,,,,,,,,,,,,,,
SENSOR,1789661775307,41505564496015,0.1471586,0.2515455,9.866804,1.5271618E-4,1.5271618E-4,1.5271618E-4,-55.050003,-14.700001,3.45,,,,,,,,,,,,,,,,,,
SENSOR,1789661775316,41505564496015,0.1471586,0.2515455,9.866804,1.5271618E-4,1.5271618E-4,1.5271618E-4,-56.025,-14.85,3.9,,,,,,,,,,,,,,,,,,
SENSOR,1789661775351,41505568150285,0.15074782,0.23718855,9.863514,1.5271618E-4,1.5271618E-4,1.5271618E-4,-56.025,-14.85,3.9,,,,,,,,,,,,,,,,,,
SENSOR,1789661775404,41505664496015,0.15074782,0.23718855,9.863514,1.5271618E-4,3.0543236E-4,-9.162971E-4,-56.025,-14.85,3.9,,,,,,,,,,,,,,,,,,
SENSOR,1789661775411,41505664496015,0.15074782,0.23718855,9.863514,1.5271618E-4,3.0543236E-4,-9.162971E-4,-55.800003,-14.775001,4.5750003,,,,,,,,,,,,,,,,,,
SENSOR,1789661775455,41505672332004,0.15014961,0.23958136,9.860523,1.5271618E-4,3.0543236E-4,-9.162971E-4,-55.800003,-14.775001,4.5750003,,,,,,,,,,,,,,,,,,
SENSOR,1789661775508,41505764496015,0.15014961,0.23958136,9.860523,1.5271618E-4,-6.108647E-4,-3.0543236E-4,-55.800003,-14.775001,4.5750003,,,,,,,,,,,,,,,,,,
SENSOR,1789661775516,41505764496015,0.15014961,0.23958136,9.860523,1.5271618E-4,-6.108647E-4,-3.0543236E-4,-56.550003,-14.775001,5.775,,,,,,,,,,,,,,,,,,
SENSOR,1789661775560,41505776513723,0.148355,0.24077778,9.862916,1.5271618E-4,-6.108647E-4,-3.0543236E-4,-56.550003,-14.775001,5.775,,,,,,,,,,,,,,,,,,
SENSOR,1789661775603,41505864496015,0.148355,0.24077778,9.862916,1.5271618E-4,-6.108647E-4,1.5271618E-4,-56.550003,-14.775001,5.775,,,,,,,,,,,,,,,,,,
SENSOR,1789661775620,41505864496015,0.148355,0.24077778,9.862916,1.5271618E-4,-6.108647E-4,1.5271618E-4,-55.425003,-14.775001,5.1000004,,,,,,,,,,,,,,,,,,
SENSOR,1789661775662,41505880695390,0.14955142,0.24077778,9.861719,1.5271618E-4,-6.108647E-4,1.5271618E-4,-55.425003,-14.775001,5.1000004,,,,,,,,,,,,,,,,,,
SENSOR,1789661775708,41505964496015,0.14955142,0.24077778,9.861719,1.5271618E-4,6.108647E-4,-0.0010690133,-55.425003,-14.775001,5.1000004,,,,,,,,,,,,,,,,,,
SENSOR,1789661775716,41505964496015,0.14955142,0.24077778,9.861719,1.5271618E-4,6.108647E-4,-0.0010690133,-56.025,-14.775001,5.025,,,,,,,,,,,,,,,,,,
SENSOR,1789661775767,41505984877056,0.15224335,0.24107689,9.863514,1.5271618E-4,6.108647E-4,-0.0010690133,-56.025,-14.775001,5.025,,,,,,,,,,,,,,,,,,
SENSOR,1789661775802,41506064496015,0.15224335,0.24107689,9.863514,0.0013744456,0.0019853103,1.5271618E-4,-56.025,-14.775001,5.025,,,,,,,,,,,,,,,,,,
SENSOR,1789661775820,41506064496015,0.15224335,0.24107689,9.863514,0.0013744456,0.0019853103,1.5271618E-4,-56.100002,-14.475,4.5,,,,,,,,,,,,,,,,,,
SENSOR,1789661775871,41506089058723,0.1471586,0.24197419,9.859326,0.0013744456,0.0019853103,1.5271618E-4,-56.100002,-14.475,4.5,,,,,,,,,,,,,,,,,,
GNSS,1789661775906,,true,11.05528561,76.92710974,378.70867919921875,3.9020376,0.0,,95,28,,,,,,,,,,,,,
SENSOR,1789661775920,41506164496015,0.1471586,0.24197419,9.859326,1.5271618E-4,6.108647E-4,1.5271618E-4,-56.100002,-14.475,4.5,,,,,,,,,,,,,,,,,,
SENSOR,1789661775920,41506164496015,0.1471586,0.24197419,9.859326,1.5271618E-4,6.108647E-4,1.5271618E-4,-56.250004,-14.925,4.65,,,,,,,,,,,,,,,,,,
GNSS,1789661776000,,true,11.05529143,76.92710657,377.3824462890625,3.8517337,0.0,,95,28,,,,,,,,,,,,,
SENSOR,1789661775976,41506193240390,0.1468595,0.2425724,9.861421,1.5271618E-4,6.108647E-4,1.5271618E-4,-56.250004,-14.925,4.65,,,,,,,,,,,,,,,,,,
SENSOR,1789661776002,41506264496015,0.1468595,0.2425724,9.861421,-9.162971E-4,-6.108647E-4,0.0,-56.250004,-14.925,4.65,,,,,,,,,,,,,,,,,,
SENSOR,1789661776020,41506264496015,0.1468595,0.2425724,9.861421,-9.162971E-4,-6.108647E-4,0.0,-56.100002,-14.55,3.6750002,,,,,,,,,,,,,,,,,,
SENSOR,1789661776080,41506297422056,0.1477568,0.24197419,9.862916,-9.162971E-4,-6.108647E-4,0.0,-56.100002,-14.55,3.6750002,,,,,,,,,,,,,,,,,,
SENSOR,1789661776107,41506364496015,0.1477568,0.24197419,9.862916,1.5271618E-4,-6.108647E-4,-4.5814854E-4,-56.100002,-14.55,3.6750002,,,,,,,,,,,,,,,,,,
SENSOR,1789661776114,41506364496015,0.1477568,0.24197419,9.862916,1.5271618E-4,-6.108647E-4,-4.5814854E-4,-55.875004,-14.85,5.925,,,,,,,,,,,,,,,,,,
SENSOR,1789661776185,41506401603723,0.1468595,0.2416751,9.863514,1.5271618E-4,-6.108647E-4,-4.5814854E-4,-55.875004,-14.85,5.925,,,,,,,,,,,,,,,,,,
CELLULAR,1789661776197,,,,,,,,,,,,,,true,NR,4298047490,405,869,,75,403,634080,-108,NR_SS_RSRP,3,
SENSOR,1789661776221,41506464496015,0.1468595,0.2416751,9.863514,1.5271618E-4,6.108647E-4,1.5271618E-4,-55.875004,-14.85,5.925,,,,,,,,,,,,,,,,,,
SENSOR,1789661776221,41506464496015,0.1468595,0.2416751,9.863514,1.5271618E-4,6.108647E-4,1.5271618E-4,-56.025,-14.700001,4.5,,,,,,,,,,,,,,,,,,
SENSOR,1789661776288,41506505785337,0.1477568,0.24077778,9.862916,1.5271618E-4,6.108647E-4,1.5271618E-4,-56.025,-14.700001,4.5,,,,,,,,,,,,,,,,,,
SENSOR,1789661776306,41506564496015,0.1477568,0.24077778,9.862916,1.5271618E-4,-6.108647E-4,-4.5814854E-4,-56.025,-14.700001,4.5,,,,,,,,,,,,,,,,,,
SENSOR,1789661776315,41506564496015,0.1477568,0.24077778,9.862916,1.5271618E-4,-6.108647E-4,-4.5814854E-4,-56.100002,-14.625001,5.25,,,,,,,,,,,,,,,,,,
SENSOR,1789661776392,41506609967004,0.14416756,0.24376881,9.863813,1.5271618E-4,-6.108647E-4,-4.5814854E-4,-56.100002,-14.625001,5.25,,,,,,,,,,,,,,,,,,
SENSOR,1789661776409,41506664496015,0.14416756,0.24376881,9.863813,1.5271618E-4,6.108647E-4,-0.0010690133,-56.100002,-14.625001,5.25,,,,,,,,,,,,,,,,,,
SENSOR,1789661776419,41506664496015,0.14416756,0.24376881,9.863813,1.5271618E-4,6.108647E-4,-0.0010690133,-55.500004,-14.925,2.7,,,,,,,,,,,,,,,,,,
SENSOR,1789661776497,41506714148619,0.1477568,0.24436702,9.861719,1.5271618E-4,6.108647E-4,-0.0010690133,-55.500004,-14.925,2.7,,,,,,,,,,,,,,,,,,
SENSOR,1789661776505,41506764496015,0.1477568,0.24436702,9.861719,1.5271618E-4,6.108647E-4,1.5271618E-4,-55.500004,-14.925,2.7,,,,,,,,,,,,,,,,,,
SENSOR,1789661776514,41506764496015,0.1477568,0.24436702,9.861719,1.5271618E-4,6.108647E-4,1.5271618E-4,-56.025,-15.3,4.5,,,,,,,,,,,,,,,,,,
SENSOR,1789661776601,41506818330285,0.1471586,0.2431706,9.861421,1.5271618E-4,6.108647E-4,1.5271618E-4,-56.025,-15.3,4.5,,,,,,,,,,,,,,,,,,
SENSOR,1789661776609,41506864496015,0.1471586,0.2431706,9.861421,1.5271618E-4,4.5814854E-4,1.5271618E-4,-56.025,-15.3,4.5,,,,,,,,,,,,,,,,,,
SENSOR,1789661776619,41506864496015,0.1471586,0.2431706,9.861421,1.5271618E-4,4.5814854E-4,1.5271618E-4,-56.100002,-14.85,5.4750004,,,,,,,,,,,,,,,,,,
SENSOR,1789661776705,41506964496015,0.1471586,0.2431706,9.861421,1.5271618E-4,6.108647E-4,1.5271618E-4,-56.100002,-14.85,5.4750004,,,,,,,,,,,,,,,,,,
SENSOR,1789661776707,41506922511900,0.1468595,0.24376881,9.861421,1.5271618E-4,6.108647E-4,1.5271618E-4,-56.100002,-14.85,5.4750004,,,,,,,,,,,,,,,,,,
SENSOR,1789661776714,41506964496015,0.1468595,0.24376881,9.861421,1.5271618E-4,6.108647E-4,1.5271618E-4,-56.325,-14.55,5.4750004,,,,,,,,,,,,,,,,,,
SENSOR,1789661776809,41507064496015,0.1468595,0.24376881,9.861421,0.0,4.5814854E-4,-0.0010690133,-56.325,-14.55,5.4750004,,,,,,,,,,,,,,,,,,
SENSOR,1789661776811,41507026693515,0.14596218,0.24197419,9.862916,0.0,4.5814854E-4,-0.0010690133,-56.325,-14.55,5.4750004,,,,,,,,,,,,,,,,,,
SENSOR,1789661776818,41507064496015,0.14596218,0.24197419,9.862916,0.0,4.5814854E-4,-0.0010690133,-55.875004,-14.700001,4.2000003,,,,,,,,,,,,,,,,,,
GNSS,1789661776900,,true,11.05529143,76.92710657,377.3824462890625,3.8517337,0.0,,95,34,,,,,,,,,,,,,
SENSOR,1789661776911,41507164496015,0.14596218,0.24197419,9.862916,-3.0543236E-4,6.108647E-4,-0.0010690133,-55.875004,-14.700001,4.2000003,,,,,,,,,,,,,,,,,,
GNSS,1789661777000,,true,11.05531798,76.92691172,359.718017578125,6.539094,0.0,,95,34,,,,,,,,,,,,,
SENSOR,1789661776914,41507130875129,0.14416756,0.24197419,9.862916,-3.0543236E-4,6.108647E-4,-0.0010690133,-55.875004,-14.700001,4.2000003,,,,,,,,,,,,,,,,,,
SENSOR,1789661776914,41507164496015,0.14416756,0.24197419,9.862916,-3.0543236E-4,6.108647E-4,-0.0010690133,-55.425003,-14.85,4.125,,,,,,,,,,,,,,,,,,
SENSOR,1789661777009,41507264496015,0.14416756,0.24197419,9.862916,-9.162971E-4,-6.108647E-4,1.5271618E-4,-55.425003,-14.85,4.125,,,,,,,,,,,,,,,,,,
SENSOR,1789661777018,41507235056744,0.1477568,0.23958136,9.862318,-9.162971E-4,-6.108647E-4,1.5271618E-4,-55.425003,-14.85,4.125,,,,,,,,,,,,,,,,,,
SENSOR,1789661777019,41507264496015,0.1477568,0.23958136,9.862318,-9.162971E-4,-6.108647E-4,1.5271618E-4,-56.475002,-15.150001,5.55,,,,,,,,,,,,,,,,,,
SENSOR,1789661777105,41507364496015,0.1477568,0.23958136,9.862318,1.5271618E-4,-1.5271618E-4,-0.0010690133,-56.475002,-15.150001,5.55,,,,,,,,,,,,,,,,,,
SENSOR,1789661777114,41507364496015,0.1477568,0.23958136,9.862318,1.5271618E-4,-1.5271618E-4,-0.0010690133,-55.800003,-14.55,3.825,,,,,,,,,,,,,,,,,,
SENSOR,1789661777121,41507339238358,0.14596218,0.24376881,9.860224,1.5271618E-4,-1.5271618E-4,-0.0010690133,-55.800003,-14.55,3.825,,,,,,,,,,,,,,,,,,
SENSOR,1789661777209,41507464496015,0.14596218,0.24376881,9.860224,1.5271618E-4,6.108647E-4,1.5271618E-4,-55.800003,-14.55,3.825,,,,,,,,,,,,,,,,,,
SENSOR,1789661777219,41507464496015,0.14596218,0.24376881,9.860224,1.5271618E-4,6.108647E-4,1.5271618E-4,-56.550003,-15.225,5.3250003,,,,,,,,,,,,,,,,,,
CELLULAR,1789661777221,,,,,,,,,,,,,,true,NR,4298047490,405,869,,75,403,634080,-108,NR_SS_RSRP,3,
SENSOR,1789661777246,41507443419921,0.1468595,0.24137598,9.863813,1.5271618E-4,6.108647E-4,1.5271618E-4,-56.550003,-15.225,5.3250003,,,,,,,,,,,,,,,,,,
SENSOR,1789661777305,41507564496015,0.1468595,0.24137598,9.863813,-0.0010690133,1.5271618E-4,1.5271618E-4,-56.550003,-15.225,5.3250003,,,,,,,,,,,,,,,,,,
SENSOR,1789661777313,41507564496015,0.1468595,0.24137598,9.863813,-0.0010690133,1.5271618E-4,1.5271618E-4,-56.025,-15.225,3.825,,,,,,,,,,,,,,,,,,
SENSOR,1789661777330,41507547601535,0.14416756,0.24227329,9.860523,-0.0010690133,1.5271618E-4,1.5271618E-4,-56.025,-15.225,3.825,,,,,,,,,,,,,,,,,,
SENSOR,1789661777408,41507664496015,0.14416756,0.24227329,9.860523,-0.0010690133,6.108647E-4,-0.0010690133,-56.025,-15.225,3.825,,,,,,,,,,,,,,,,,,
SENSOR,1789661777416,41507664496015,0.14416756,0.24227329,9.860523,-0.0010690133,6.108647E-4,-0.0010690133,-56.100002,-14.625001,5.25,,,,,,,,,,,,,,,,,,
SENSOR,1789661777435,41507651783098,0.1471586,0.24197419,9.861719,-0.0010690133,6.108647E-4,-0.0010690133,-56.100002,-14.625001,5.25,,,,,,,,,,,,,,,,,,
SENSOR,1789661777506,41507764496015,0.1471586,0.24197419,9.861719,1.5271618E-4,6.108647E-4,1.5271618E-4,-56.100002,-14.625001,5.25,,,,,,,,,,,,,,,,,,
SENSOR,1789661777512,41507764496015,0.1471586,0.24197419,9.861719,1.5271618E-4,6.108647E-4,1.5271618E-4,-56.625004,-14.85,5.625,,,,,,,,,,,,,,,,,,
SENSOR,1789661777539,41507755964660,0.14446667,0.2434697,9.863514,1.5271618E-4,6.108647E-4,1.5271618E-4,-56.625004,-14.85,5.625,,,,,,,,,,,,,,,,,,
SENSOR,1789661777608,41507864496015,0.14446667,0.2434697,9.863514,1.5271618E-4,6.108647E-4,1.5271618E-4,-56.625004,-14.85,5.625,,,,,,,,,,,,,,,,,,
SENSOR,1789661777617,41507864496015,0.14446667,0.2434697,9.863514,1.5271618E-4,6.108647E-4,1.5271618E-4,-55.65,-15.450001,3.525,,,,,,,,,,,,,,,,,,
SENSOR,1789661777643,41507860146223,0.1477568,0.2440679,9.862318,1.5271618E-4,6.108647E-4,1.5271618E-4,-55.65,-15.450001,3.525,,,,,,,,,,,,,,,,,,
SENSOR,1789661777705,41507964496015,0.1477568,0.2440679,9.862318,1.5271618E-4,6.108647E-4,-7.635809E-4,-55.65,-15.450001,3.525,,,,,,,,,,,,,,,,,,
SENSOR,1789661777712,41507964496015,0.1477568,0.2440679,9.862318,1.5271618E-4,6.108647E-4,-7.635809E-4,-56.175003,-15.150001,4.8,,,,,,,,,,,,,,,,,,
SENSOR,1789661777747,41507964327837,0.14476576,0.2434697,9.861719,1.5271618E-4,6.108647E-4,-7.635809E-4,-56.175003,-15.150001,4.8,,,,,,,,,,,,,,,,,,
SENSOR,1789661777809,41508064496015,0.14476576,0.2434697,9.861719,1.5271618E-4,-3.0543236E-4,-0.0010690133,-56.175003,-15.150001,4.8,,,,,,,,,,,,,,,,,,
SENSOR,1789661777817,41508064496015,0.14476576,0.2434697,9.861719,1.5271618E-4,-3.0543236E-4,-0.0010690133,-56.475002,-14.625001,5.55,,,,,,,,,,,,,,,,,,
SENSOR,1789661777851,41508068509400,0.14566308,0.24227329,9.859326,1.5271618E-4,-3.0543236E-4,-0.0010690133,-56.475002,-14.625001,5.55,,,,,,,,,,,,,,,,,,
SENSOR,1789661777903,41508164496015,0.14566308,0.24227329,9.859326,1.5271618E-4,-6.108647E-4,-1.5271618E-4,-56.475002,-14.625001,5.55,,,,,,,,,,,,,,,,,,
GNSS,1789661777905,,true,11.05531798,76.92691172,359.718017578125,6.539094,0.0,,95,35,,,,,,,,,,,,,
SENSOR,1789661777922,41508164496015,0.14566308,0.24227329,9.859326,1.5271618E-4,-6.108647E-4,-1.5271618E-4,-56.625004,-14.85,5.025,,,,,,,,,,,,,,,,,,
GNSS,1789661778000,,true,11.05530702,76.92696517,366.7275390625,3.7900925,0.0,,95,35,,,,,,,,,,,,,
SENSOR,1789661777955,41508172690962,0.1471586,0.2434697,9.860224,1.5271618E-4,-6.108647E-4,-1.5271618E-4,-56.625004,-14.85,5.025,,,,,,,,,,,,,,,,,,
SENSOR,1789661778007,41508264496015,0.1471586,0.2434697,9.860224,1.5271618E-4,-6.108647E-4,1.5271618E-4,-56.625004,-14.85,5.025,,,,,,,,,,,,,,,,,,
SENSOR,1789661778017,41508264496015,0.1471586,0.2434697,9.860224,1.5271618E-4,-6.108647E-4,1.5271618E-4,-56.175003,-14.700001,4.7250004,,,,,,,,,,,,,,,,,,
SENSOR,1789661778059,41508276872473,0.14566308,0.24107689,9.862617,1.5271618E-4,-6.108647E-4,1.5271618E-4,-56.175003,-14.700001,4.7250004,,,,,,,,,,,,,,,,,,
SENSOR,1789661778102,41508364496015,0.14566308,0.24107689,9.862617,1.5271618E-4,-6.108647E-4,1.5271618E-4,-56.175003,-14.700001,4.7250004,,,,,,,,,,,,,,,,,,
SENSOR,1789661778111,41508364496015,0.14566308,0.24107689,9.862617,1.5271618E-4,-6.108647E-4,1.5271618E-4,-55.575,-14.625001,3.3750002,,,,,,,,,,,,,,,,,,
SENSOR,1789661778169,41508381054035,0.14656039,0.2431706,9.861719,1.5271618E-4,-6.108647E-4,1.5271618E-4,-55.575,-14.625001,3.3750002,,,,,,,,,,,,,,,,,,
SENSOR,1789661778206,41508464496015,0.14656039,0.2431706,9.861719,1.5271618E-4,-3.0543236E-4,-7.635809E-4,-55.575,-14.625001,3.3750002,,,,,,,,,,,,,,,,,,
SENSOR,1789661778215,41508464496015,0.14656039,0.2431706,9.861719,1.5271618E-4,-3.0543236E-4,-7.635809E-4,-56.100002,-14.775001,3.45,,,,,,,,,,,,,,,,,,
CELLULAR,1789661778246,,,,,,,,,,,,,,true,NR,4298047490,405,869,,75,403,634080,-108,NR_SS_RSRP,3,
SENSOR,1789661778271,41508485235546,0.14656039,0.23988047,9.861719,1.5271618E-4,-3.0543236E-4,-7.635809E-4,-56.100002,-14.775001,3.45,,,,,,,,,,,,,,,,,,
SENSOR,1789661778302,41508564496015,0.14656039,0.23988047,9.861719,1.5271618E-4,6.108647E-4,-1.5271618E-4,-56.100002,-14.775001,3.45,,,,,,,,,,,,,,,,,,
SENSOR,1789661778320,41508564496015,0.14656039,0.23988047,9.861719,1.5271618E-4,6.108647E-4,-1.5271618E-4,-55.125004,-15.225,3.45,,,,,,,,,,,,,,,,,,
SENSOR,1789661778372,41508589417056,0.14566308,0.24436702,9.865009,1.5271618E-4,6.108647E-4,-1.5271618E-4,-55.125004,-15.225,3.45,,,,,,,,,,,,,,,,,,
SENSOR,1789661778407,41508664496015,0.14566308,0.24436702,9.865009,1.5271618E-4,-1.5271618E-4,1.5271618E-4,-55.125004,-15.225,3.45,,,,,,,,,,,,,,,,,,
SENSOR,1789661778416,41508664496015,0.14566308,0.24436702,9.865009,1.5271618E-4,-1.5271618E-4,1.5271618E-4,-55.575,-14.85,3.3750002,,,,,,,,,,,,,,,,,,
SENSOR,1789661778476,41508693598619,0.14656039,0.24436702,9.860822,1.5271618E-4,-1.5271618E-4,1.5271618E-4,-55.575,-14.85,3.3750002,,,,,,,,,,,,,,,,,,
SENSOR,1789661778502,41508764496015,0.14656039,0.24436702,9.860822,1.5271618E-4,-6.108647E-4,1.5271618E-4,-55.575,-14.85,3.3750002,,,,,,,,,,,,,,,,,,
SENSOR,1789661778520,41508764496015,0.14656039,0.24436702,9.860822,1.5271618E-4,-6.108647E-4,1.5271618E-4,-56.550003,-15.150001,4.9500003,,,,,,,,,,,,,,,,,,
SENSOR,1789661778580,41508797780077,0.14506488,0.24017957,9.862617,1.5271618E-4,-6.108647E-4,1.5271618E-4,-56.550003,-15.150001,4.9500003,,,,,,,,,,,,,,,,,,
SENSOR,1789661778607,41508864496015,0.14506488,0.24017957,9.862617,1.5271618E-4,6.108647E-4,-0.0010690133,-56.550003,-15.150001,4.9500003,,,,,,,,,,,,,,,,,,
SENSOR,1789661778615,41508864496015,0.14506488,0.24017957,9.862617,1.5271618E-4,6.108647E-4,-0.0010690133,-55.95,-15.075001,3.6750002,,,,,,,,,,,,,,,,,,
SENSOR,1789661778685,41508901961587,0.14745769,0.2416751,9.861121,1.5271618E-4,6.108647E-4,-0.0010690133,-55.95,-15.075001,3.6750002,,,,,,,,,,,,,,,,,,
SENSOR,1789661778701,41508964496015,0.14745769,0.2416751,9.861121,1.5271618E-4,-7.635809E-4,4.5814854E-4,-55.95,-15.075001,3.6750002,,,,,,,,,,,,,,,,,,
SENSOR,1789661778720,41508964496015,0.14745769,0.2416751,9.861121,1.5271618E-4,-7.635809E-4,4.5814854E-4,-55.95,-14.775001,4.3500004,,,,,,,,,,,,,,,,,,
SENSOR,1789661778788,41509006143098,0.14656039,0.24107689,9.863813,1.5271618E-4,-7.635809E-4,4.5814854E-4,-55.95,-14.775001,4.3500004,,,,,,,,,,,,,,,,,,
SENSOR,1789661778806,41509064496015,0.14656039,0.24107689,9.863813,1.5271618E-4,-3.0543236E-4,4.5814854E-4,-55.95,-14.775001,4.3500004,,,,,,,,,,,,,,,,,,
SENSOR,1789661778814,41509064496015,0.14656039,0.24107689,9.863813,1.5271618E-4,-3.0543236E-4,4.5814854E-4,-56.250004,-15.450001,5.7000003,,,,,,,,,,,,,,,,,,
SENSOR,1789661778893,41509110324556,0.14476576,0.24077778,9.859925,1.5271618E-4,-3.0543236E-4,4.5814854E-4,-56.250004,-15.450001,5.7000003,,,,,,,,,,,,,,,,,,
SENSOR,1789661778903,41509164496015,0.14476576,0.24077778,9.859925,1.5271618E-4,-7.635809E-4,4.5814854E-4,-56.250004,-15.450001,5.7000003,,,,,,,,,,,,,,,,,,
GNSS,1789661778904,,true,11.05530702,76.92696517,366.7275390625,3.7900925,0.0,,95,31,,,,,,,,,,,,,
SENSOR,1789661778920,41509164496015,0.14476576,0.24077778,9.859925,1.5271618E-4,-7.635809E-4,4.5814854E-4,-55.65,-15.075001,3.9,,,,,,,,,,,,,,,,,,
GNSS,1789661779000,,true,11.05530481,76.92700443,372.1077880859375,3.7900925,0.0,,95,31,,,,,,,,,,,,,
SENSOR,1789661778998,41509214506067,0.14476576,0.2425724,9.862916,1.5271618E-4,-7.635809E-4,4.5814854E-4,-55.65,-15.075001,3.9,,,,,,,,,,,,,,,,,,
SENSOR,1789661779006,41509264496015,0.14476576,0.2425724,9.862916,-4.5814854E-4,-1.5271618E-4,4.5814854E-4,-55.65,-15.075001,3.9,,,,,,,,,,,,,,,,,,
SENSOR,1789661779016,41509264496015,0.14476576,0.2425724,9.862916,-4.5814854E-4,-1.5271618E-4,4.5814854E-4,-56.025,-14.925,5.4,,,,,,,,,,,,,,,,,,
SENSOR,1789661779102,41509364496015,0.14476576,0.2425724,9.862916,1.5271618E-4,4.5814854E-4,4.5814854E-4,-56.025,-14.925,5.4,,,,,,,,,,,,,,,,,,
SENSOR,1789661779102,41509318687525,0.14626129,0.2425724,9.864711,1.5271618E-4,4.5814854E-4,4.5814854E-4,-56.025,-14.925,5.4,,,,,,,,,,,,,,,,,,
SENSOR,1789661779118,41509364496015,0.14626129,0.2425724,9.864711,1.5271618E-4,4.5814854E-4,4.5814854E-4,-55.575,-14.325001,3.9,,,,,,,,,,,,,,,,,,
SENSOR,1789661779206,41509464496015,0.14626129,0.2425724,9.864711,1.5271618E-4,-1.5271618E-4,4.5814854E-4,-55.575,-14.325001,3.9,,,,,,,,,,,,,,,,,,
SENSOR,1789661779206,41509422868983,0.14656039,0.24137598,9.862318,1.5271618E-4,-1.5271618E-4,4.5814854E-4,-55.575,-14.325001,3.9,,,,,,,,,,,,,,,,,,
SENSOR,1789661779214,41509464496015,0.14656039,0.24137598,9.862318,1.5271618E-4,-1.5271618E-4,4.5814854E-4,-55.575,-14.475,4.3500004,,,,,,,,,,,,,,,,,,
CELLULAR,1789661779272,,,,,,,,,,,,,,true,NR,4298047490,405,869,,75,403,634080,-108,NR_SS_RSRP,3,
SENSOR,1789661779314,41509564496015,0.14656039,0.24137598,9.862318,1.5271618E-4,4.5814854E-4,4.5814854E-4,-55.575,-14.475,4.3500004,,,,,,,,,,,,,,,,,,
SENSOR,1789661779314,41509527050442,0.148355,0.24197419,9.862019,1.5271618E-4,4.5814854E-4,4.5814854E-4,-55.575,-14.475,4.3500004,,,,,,,,,,,,,,,,,,
SENSOR,1789661779321,41509564496015,0.148355,0.24197419,9.862019,1.5271618E-4,4.5814854E-4,4.5814854E-4,-56.4,-14.325001,4.8,,,,,,,,,,,,,,,,,,
SENSOR,1789661779405,41509664496015,0.148355,0.24197419,9.862019,1.5271618E-4,-3.0543236E-4,-7.635809E-4,-56.4,-14.325001,4.8,,,,,,,,,,,,,,,,,,
SENSOR,1789661779414,41509631231848,0.14566308,0.2431706,9.863514,1.5271618E-4,-3.0543236E-4,-7.635809E-4,-56.4,-14.325001,4.8,,,,,,,,,,,,,,,,,,
SENSOR,1789661779415,41509664496015,0.14566308,0.2431706,9.863514,1.5271618E-4,-3.0543236E-4,-7.635809E-4,-56.100002,-14.925,4.2000003,,,,,,,,,,,,,,,,,,
SENSOR,1789661779509,41509764496015,0.14566308,0.2431706,9.863514,-9.162971E-4,-7.635809E-4,-7.635809E-4,-56.100002,-14.925,4.2000003,,,,,,,,,,,,,,,,,,
SENSOR,1789661779518,41509735413306,0.14356937,0.24017957,9.860523,-9.162971E-4,-7.635809E-4,-7.635809E-4,-56.100002,-14.925,4.2000003,,,,,,,,,,,,,,,,,,
SENSOR,1789661779518,41509764496015,0.14356937,0.24017957,9.860523,-9.162971E-4,-7.635809E-4,-7.635809E-4,-56.4,-14.85,5.8500004,,,,,,,,,,,,,,,,,,
SENSOR,1789661779605,41509864496015,0.14356937,0.24017957,9.860523,1.5271618E-4,-1.5271618E-4,-0.0,-56.4,-14.85,5.8500004,,,,,,,,,,,,,,,,,,
SENSOR,1789661779613,41509864496015,0.14356937,0.24017957,9.860523,1.5271618E-4,-1.5271618E-4,-0.0,-56.175003,-14.325001,5.25,,,,,,,,,,,,,,,,,,
SENSOR,1789661779622,41509839594765,0.14626129,0.24466611,9.863813,1.5271618E-4,-1.5271618E-4,-0.0,-56.175003,-14.325001,5.25,,,,,,,,,,,,,,,,,,
SENSOR,1789661779709,41509964496015,0.14626129,0.24466611,9.863813,1.5271618E-4,4.5814854E-4,-6.108647E-4,-56.175003,-14.325001,5.25,,,,,,,,,,,,,,,,,,
SENSOR,1789661779718,41509964496015,0.14626129,0.24466611,9.863813,1.5271618E-4,4.5814854E-4,-6.108647E-4,-55.425003,-14.625001,3.9,,,,,,,,,,,,,,,,,,
SENSOR,1789661779726,41509943776171,0.14745769,0.24137598,9.862916,1.5271618E-4,4.5814854E-4,-6.108647E-4,-55.425003,-14.625001,3.9,,,,,,,,,,,,,,,,,,
SENSOR,1789661779804,41510064496015,0.14745769,0.24137598,9.862916,-3.0543236E-4,4.5814854E-4,4.5814854E-4,-55.425003,-14.625001,3.9,,,,,,,,,,,,,,,,,,
SENSOR,1789661779814,41510064496015,0.14745769,0.24137598,9.862916,-3.0543236E-4,4.5814854E-4,4.5814854E-4,-56.250004,-15.150001,4.9500003,,,,,,,,,,,,,,,,,,
SENSOR,1789661779830,41510047957577,0.14656039,0.24436702,9.861719,-3.0543236E-4,4.5814854E-4,4.5814854E-4,-56.250004,-15.150001,4.9500003,,,,,,,,,,,,,,,,,,
GNSS,1789661779906,,true,11.05530481,76.92700443,372.1077880859375,3.7900925,0.0,,95,34,,,,,,,,,,,,,
SENSOR,1789661779923,41510164496015,0.14656039,0.24436702,9.861719,1.5271618E-4,-7.635809E-4,4.5814854E-4,-56.250004,-15.150001,4.9500003,,,,,,,,,,,,,,,,,,
SENSOR,1789661779923,41510164496015,0.14656039,0.24436702,9.861719,1.5271618E-4,-7.635809E-4,4.5814854E-4,-56.100002,-14.85,5.775,,,,,,,,,,,,,,,,,,
GNSS,1789661780000,,true,11.05530545,76.92702909,374.2469482421875,3.7900925,0.0,,95,34,,,,,,,,,,,,,
SENSOR,1789661779934,41510152138983,0.14596218,0.2425724,9.862318,1.5271618E-4,-7.635809E-4,4.5814854E-4,-56.100002,-14.85,5.775,,,,,,,,,,,,,,,,,,
SENSOR,1789661780004,41510264496015,0.14596218,0.2425724,9.862318,-6.108647E-4,-4.5814854E-4,-3.0543236E-4,-56.100002,-14.85,5.775,,,,,,,,,,,,,,,,,,
SENSOR,1789661780013,41510264496015,0.14596218,0.2425724,9.862318,-6.108647E-4,-4.5814854E-4,-3.0543236E-4,-55.800003,-14.775001,4.9500003,,,,,,,,,,,,,,,,,,
SENSOR,1789661780039,41510256320390,0.1471586,0.24376881,9.862019,-6.108647E-4,-4.5814854E-4,-3.0543236E-4,-55.800003,-14.775001,4.9500003,,,,,,,,,,,,,,,,,,
SENSOR,1789661780108,41510364496015,0.1471586,0.24376881,9.862019,1.5271618E-4,-7.635809E-4,-4.5814854E-4,-55.800003,-14.775001,4.9500003,,,,,,,,,,,,,,,,,,
SENSOR,1789661780118,41510364496015,0.1471586,0.24376881,9.862019,1.5271618E-4,-7.635809E-4,-4.5814854E-4,-54.9,-15.225,2.4,,,,,,,,,,,,,,,,,,
SENSOR,1789661780142,41510360501796,0.14446667,0.24197419,9.862019,1.5271618E-4,-7.635809E-4,-4.5814854E-4,-54.9,-15.225,2.4,,,,,,,,,,,,,,,,,,
SENSOR,1789661780203,41510464496015,0.14446667,0.24197419,9.862019,-6.108647E-4,-4.5814854E-4,4.5814854E-4,-54.9,-15.225,2.4,,,,,,,,,,,,,,,,,,
SENSOR,1789661780213,41510464496015,0.14446667,0.24197419,9.862019,-6.108647E-4,-4.5814854E-4,4.5814854E-4,-54.750004,-14.625001,3.2250001,,,,,,,,,,,,,,,,,,
SENSOR,1789661780247,41510464683202,0.1468595,0.24227329,9.861121,-6.108647E-4,-4.5814854E-4,4.5814854E-4,-54.750004,-14.625001,3.2250001,,,,,,,,,,,,,,,,,,
CELLULAR,1789661780295,,,,,,,,,,,,,,true,NR,4298047490,405,869,,75,403,634080,-108,NR_SS_RSRP,3,
SENSOR,1789661780320,41510564496015,0.1468595,0.24227329,9.861121,1.5271618E-4,-7.635809E-4,4.5814854E-4,-54.750004,-14.625001,3.2250001,,,,,,,,,,,,,,,,,,
SENSOR,1789661780320,41510564496015,0.1468595,0.24227329,9.861121,1.5271618E-4,-7.635809E-4,4.5814854E-4,-56.7,-15.150001,5.025,,,,,,,,,,,,,,,,,,
SENSOR,1789661780350,41510568864608,0.14596218,0.24197419,9.861121,1.5271618E-4,-7.635809E-4,4.5814854E-4,-56.7,-15.150001,5.025,,,,,,,,,,,,,,,,,,
SENSOR,1789661780404,41510664496015,0.14596218,0.24197419,9.861121,1.5271618E-4,4.5814854E-4,-7.635809E-4,-56.7,-15.150001,5.025,,,,,,,,,,,,,,,,,,
SENSOR,1789661780412,41510664496015,0.14596218,0.24197419,9.861121,1.5271618E-4,4.5814854E-4,-7.635809E-4,-56.250004,-14.925,5.4750004,,,,,,,,,,,,,,,,,,
SENSOR,1789661780455,41510673045962,0.14596218,0.24496523,9.862916,1.5271618E-4,4.5814854E-4,-7.635809E-4,-56.250004,-14.925,5.4750004,,,,,,,,,,,,,,,,,,
SENSOR,1789661780508,41510764496015,0.14596218,0.24496523,9.862916,1.5271618E-4,-4.5814854E-4,1.5271618E-4,-56.250004,-14.925,5.4750004,,,,,,,,,,,,,,,,,,
SENSOR,1789661780517,41510764496015,0.14596218,0.24496523,9.862916,1.5271618E-4,-4.5814854E-4,1.5271618E-4,-55.800003,-14.250001,4.65,,,,,,,,,,,,,,,,,,
SENSOR,1789661780561,41510777227317,0.14656039,0.2434697,9.862019,1.5271618E-4,-4.5814854E-4,1.5271618E-4,-55.800003,-14.250001,4.65,,,,,,,,,,,,,,,,,,
SENSOR,1789661780603,41510864496015,0.14656039,0.2434697,9.862019,1.5271618E-4,4.5814854E-4,4.5814854E-4,-55.800003,-14.250001,4.65,,,,,,,,,,,,,,,,,,
SENSOR,1789661780612,41510864496015,0.14656039,0.2434697,9.862019,1.5271618E-4,4.5814854E-4,4.5814854E-4,-55.800003,-14.400001,5.775,,,,,,,,,,,,,,,,,,
SENSOR,1789661780666,41510881408723,0.14626129,0.2431706,9.860523,1.5271618E-4,4.5814854E-4,4.5814854E-4,-55.800003,-14.400001,5.775,,,,,,,,,,,,,,,,,,
SENSOR,1789661780709,41510964496015,0.14626129,0.2431706,9.860523,1.5271618E-4,-7.635809E-4,4.5814854E-4,-55.800003,-14.400001,5.775,,,,,,,,,,,,,,,,,,
SENSOR,1789661780716,41510964496015,0.14626129,0.2431706,9.860523,1.5271618E-4,-7.635809E-4,4.5814854E-4,-55.65,-14.700001,4.875,,,,,,,,,,,,,,,,,,
SENSOR,1789661780769,41510985590077,0.14596218,0.24197419,9.864112,1.5271618E-4,-7.635809E-4,4.5814854E-4,-55.65,-14.700001,4.875,,,,,,,,,,,,,,,,,,
SENSOR,1789661780802,41511064496015,0.14596218,0.24197419,9.864112,1.5271618E-4,-7.635809E-4,4.5814854E-4,-55.65,-14.700001,4.875,,,,,,,,,,,,,,,,,,
SENSOR,1789661780811,41511064496015,0.14596218,0.24197419,9.864112,1.5271618E-4,-7.635809E-4,4.5814854E-4,-55.800003,-15.000001,4.5750003,,,,,,,,,,,,,,,,,,
SENSOR,1789661780872,41511089771431,0.14536397,0.2425724,9.861719,1.5271618E-4,-7.635809E-4,4.5814854E-4,-55.800003,-15.000001,4.5750003,,,,,,,,,,,,,,,,,,
GNSS,1789661780907,,true,11.05530545,76.92702909,374.2469482421875,3.7900925,0.0,,95,35,,,,,,,,,,,,,
SENSOR,1789661780922,41511164496015,0.14536397,0.2425724,9.861719,-6.108647E-4,0.0,1.5271618E-4,-55.800003,-15.000001,4.5750003,,,,,,,,,,,,,,,,,,
SENSOR,1789661780923,41511164496015,0.14536397,0.2425724,9.861719,-6.108647E-4,0.0,1.5271618E-4,-55.95,-14.625001,5.175,,,,,,,,,,,,,,,,,,
GNSS,1789661781000,,true,11.05530214,76.92704101,375.57659912109375,3.7900925,0.0,,95,35,,,,,,,,,,,,,
SENSOR,1789661780977,41511193952733,0.14446667,0.24376881,9.866505,-6.108647E-4,0.0,1.5271618E-4,-55.95,-14.625001,5.175,,,,,,,,,,,,,,,,,,
SENSOR,1789661781003,41511264496015,0.14446667,0.24376881,9.866505,-7.635809E-4,-6.108647E-4,3.0543236E-4,-55.95,-14.625001,5.175,,,,,,,,,,,,,,,,,,
SENSOR,1789661781011,41511264496015,0.14446667,0.24376881,9.866505,-7.635809E-4,-6.108647E-4,3.0543236E-4,-56.025,-14.700001,4.7250004,,,,,,,,,,,,,,,,,,
SENSOR,1789661781080,41511298134087,0.1471586,0.2416751,9.859326,-7.635809E-4,-6.108647E-4,3.0543236E-4,-56.025,-14.700001,4.7250004,,,,,,,,,,,,,,,,,,
SENSOR,1789661781108,41511364496015,0.1471586,0.2416751,9.859326,-6.108647E-4,-7.635809E-4,4.5814854E-4,-56.025,-14.700001,4.7250004,,,,,,,,,,,,,,,,,,
SENSOR,1789661781115,41511364496015,0.1471586,0.2416751,9.859326,-6.108647E-4,-7.635809E-4,4.5814854E-4,-56.175003,-14.625001,5.175,,,,,,,,,,,,,,,,,,
SENSOR,1789661781185,41511402315442,0.14506488,0.24436702,9.864112,-6.108647E-4,-7.635809E-4,4.5814854E-4,-56.175003,-14.625001,5.175,,,,,,,,,,,,,,,,,,
SENSOR,1789661781203,41511464496015,0.14506488,0.24436702,9.864112,1.5271618E-4,-6.108647E-4,3.0543236E-4,-56.175003,-14.625001,5.175,,,,,,,,,,,,,,,,,,
SENSOR,1789661781220,41511464496015,0.14506488,0.24436702,9.864112,1.5271618E-4,-6.108647E-4,3.0543236E-4,-55.875004,-14.55,4.5,,,,,,,,,,,,,,,,,,
SENSOR,1789661781289,41511506496744,0.14596218,0.24077778,9.859925,1.5271618E-4,-6.108647E-4,3.0543236E-4,-55.875004,-14.55,4.5,,,,,,,,,,,,,,,,,,
SENSOR,1789661781306,41511564496015,0.14596218,0.24077778,9.859925,-4.5814854E-4,-3.0543236E-4,-3.0543236E-4,-55.875004,-14.55,4.5,,,,,,,,,,,,,,,,,,
SENSOR,1789661781315,41511564496015,0.14596218,0.24077778,9.859925,-4.5814854E-4,-3.0543236E-4,-3.0543236E-4,-56.025,-14.400001,4.9500003,,,,,,,,,,,,,,,,,,
CELLULAR,1789661781320,,,,,,,,,,,,,,true,NR,4298047490,405,869,,75,403,634080,-108,NR_SS_RSRP,3,
SENSOR,1789661781395,41511610678098,0.14536397,0.2431706,9.864411,-4.5814854E-4,-3.0543236E-4,-3.0543236E-4,-56.025,-14.400001,4.9500003,,,,,,,,,,,,,,,,,,
SENSOR,1789661781402,41511664496015,0.14536397,0.2431706,9.864411,1.5271618E-4,4.5814854E-4,4.5814854E-4,-56.025,-14.400001,4.9500003,,,,,,,,,,,,,,,,,,
SENSOR,1789661781420,41511664496015,0.14536397,0.2431706,9.864411,1.5271618E-4,4.5814854E-4,4.5814854E-4,-56.025,-14.925,4.9500003,,,,,,,,,,,,,,,,,,
SENSOR,1789661781497,41511714859400,0.14506488,0.24047868,9.862916,1.5271618E-4,4.5814854E-4,4.5814854E-4,-56.025,-14.925,4.9500003,,,,,,,,,,,,,,,,,,
SENSOR,1789661781505,41511764496015,0.14506488,0.24047868,9.862916,1.5271618E-4,-7.635809E-4,4.5814854E-4,-56.025,-14.925,4.9500003,,,,,,,,,,,,,,,,,,
SENSOR,1789661781515,41511764496015,0.14506488,0.24047868,9.862916,1.5271618E-4,-7.635809E-4,4.5814854E-4,-56.025,-14.700001,5.175,,,,,,,,,,,,,,,,,,
SENSOR,1789661781603,41511819040702,0.14656039,0.2416751,9.860224,1.5271618E-4,-7.635809E-4,4.5814854E-4,-56.025,-14.700001,5.175,,,,,,,,,,,,,,,,,,
SENSOR,1789661781603,41511864496015,0.14656039,0.2416751,9.860224,1.5271618E-4,-7.635809E-4,4.5814854E-4,-56.025,-14.700001,5.175,,,,,,,,,,,,,,,,,,
SENSOR,1789661781619,41511864496015,0.14656039,0.2416751,9.860224,1.5271618E-4,-7.635809E-4,4.5814854E-4,-56.025,-14.625001,4.5,,,,,,,,,,,,,,,,,,
SENSOR,1789661781706,41511964496015,0.14656039,0.2416751,9.860224,1.5271618E-4,-1.5271618E-4,4.5814854E-4,-56.025,-14.625001,4.5,,,,,,,,,,,,,,,,,,
SENSOR,1789661781708,41511923222004,0.1471586,0.24586253,9.862318,1.5271618E-4,-1.5271618E-4,4.5814854E-4,-56.025,-14.625001,4.5,,,,,,,,,,,,,,,,,,
SENSOR,1789661781714,41511964496015,0.1471586,0.24586253,9.862318,1.5271618E-4,-1.5271618E-4,4.5814854E-4,-55.425003,-14.625001,3.2250001,,,,,,,,,,,,,,,,,,
SENSOR,1789661781801,41512064496015,0.1471586,0.24586253,9.862318,1.5271618E-4,4.5814854E-4,-7.635809E-4,-55.425003,-14.625001,3.2250001,,,,,,,,,,,,,,,,,,
SENSOR,1789661781809,41512027403306,0.1468595,0.2425724,9.862617,1.5271618E-4,4.5814854E-4,-7.635809E-4,-55.425003,-14.625001,3.2250001,,,,,,,,,,,,,,,,,,
SENSOR,1789661781820,41512064496015,0.1468595,0.2425724,9.862617,1.5271618E-4,4.5814854E-4,-7.635809E-4,-56.175003,-15.225,5.175,,,,,,,,,,,,,,,,,,
SENSOR,1789661781905,41512164496015,0.1468595,0.2425724,9.862617,1.5271618E-4,-1.5271618E-4,-1.5271618E-4,-56.175003,-15.225,5.175,,,,,,,,,,,,,,,,,,
GNSS,1789661781906,,true,11.05530214,76.92704101,375.57659912109375,3.7900925,0.0,,95,35,,,,,,,,,,,,,
SENSOR,1789661781920,41512131584556,0.14356937,0.24735804,9.863514,1.5271618E-4,-1.5271618E-4,-1.5271618E-4,-56.175003,-15.225,5.175,,,,,,,,,,,,,,,,,,
SENSOR,1789661781920,41512164496015,0.14356937,0.24735804,9.863514,1.5271618E-4,-1.5271618E-4,-1.5271618E-4,-56.175003,-14.700001,4.9500003,,,,,,,,,,,,,,,,,,
GNSS,1789661782000,,true,11.05530515,76.92705491,376.18475341796875,3.7900925,0.0,,95,35,,,,,,,,,,,,,
SENSOR,1789661782009,41512264496015,0.14356937,0.24735804,9.863514,-0.0022907427,-0.005650499,4.5814854E-4,-56.175003,-14.700001,4.9500003,,,,,,,,,,,,,,,,,,
SENSOR,1789661782019,41512235765858,0.14656039,0.24017957,9.864112,-0.0022907427,-0.005650499,4.5814854E-4,-56.175003,-14.700001,4.9500003,,,,,,,,,,,,,,,,,,
SENSOR,1789661782020,41512264496015,0.14656039,0.24017957,9.864112,-0.0022907427,-0.005650499,4.5814854E-4,-55.575,-14.55,3.3000002,,,,,,,,,,,,,,,,,,
SENSOR,1789661782104,41512364496015,0.14656039,0.24017957,9.864112,-0.0010690133,-0.0019853103,-1.5271618E-4,-55.575,-14.55,3.3000002,,,,,,,,,,,,,,,,,,
SENSOR,1789661782114,41512364496015,0.14656039,0.24017957,9.864112,-0.0010690133,-0.0019853103,-1.5271618E-4,-55.875004,-14.775001,4.125,,,,,,,,,,,,,,,,,,
SENSOR,1789661782123,41512339947108,0.15134603,0.23599213,9.859326,-0.0010690133,-0.0019853103,-1.5271618E-4,-55.875004,-14.775001,4.125,,,,,,,,,,,,,,,,,,
SENSOR,1789661782209,41512464496015,0.15134603,0.23599213,9.859326,3.0543236E-4,0.0015271618,4.5814854E-4,-55.875004,-14.775001,4.125,,,,,,,,,,,,,,,,,,
SENSOR,1789661782219,41512464496015,0.15134603,0.23599213,9.859326,3.0543236E-4,0.0015271618,4.5814854E-4,-56.100002,-14.85,5.175,,,,,,,,,,,,,,,,,,
SENSOR,1789661782227,41512444128358,0.15104693,0.23928227,9.863813,3.0543236E-4,0.0015271618,4.5814854E-4,-56.100002,-14.85,5.175,,,,,,,,,,,,,,,,,,
SENSOR,1789661782304,41512564496015,0.15104693,0.23928227,9.863813,-0.0010690133,-0.0015271618,-1.5271618E-4,-56.100002,-14.85,5.175,,,,,,,,,,,,,,,,,,
SENSOR,1789661782315,41512564496015,0.15104693,0.23928227,9.863813,-0.0010690133,-0.0015271618,-1.5271618E-4,-56.025,-15.3,3.9750001,,,,,,,,,,,,,,,,,,
SENSOR,1789661782330,41512548309608,0.1477568,0.23958136,9.861121,-0.0010690133,-0.0015271618,-1.5271618E-4,-56.025,-15.3,3.9750001,,,,,,,,,,,,,,,,,,
CELLULAR,1789661782334,,,,,,,,,,,,,,true,NR,4298047490,405,869,,75,403,634080,-108,NR_SS_RSRP,3,
SENSOR,1789661782409,41512664496015,0.1477568,0.23958136,9.861121,1.5271618E-4,4.5814854E-4,-6.108647E-4,-56.025,-15.3,3.9750001,,,,,,,,,,,,,,,,,,
SENSOR,1789661782417,41512664496015,0.1477568,0.23958136,9.861121,1.5271618E-4,4.5814854E-4,-6.108647E-4,-55.350002,-15.150001,3.9750001,,,,,,,,,,,,,,,,,,
SENSOR,1789661782436,41512652490858,0.14955142,0.24197419,9.8632145,1.5271618E-4,4.5814854E-4,-6.108647E-4,-55.350002,-15.150001,3.9750001,,,,,,,,,,,,,,,,,,
SENSOR,1789661782504,41512764496015,0.14955142,0.24197419,9.8632145,-3.0543236E-4,-7.635809E-4,4.5814854E-4,-55.350002,-15.150001,3.9750001,,,,,,,,,,,,,,,,,,
SENSOR,1789661782512,41512764496015,0.14955142,0.24197419,9.8632145,-3.0543236E-4,-7.635809E-4,4.5814854E-4,-55.425003,-14.85,3.525,,,,,,,,,,,,,,,,,,
SENSOR,1789661782539,41512756672108,0.15014961,0.23988047,9.864112,-3.0543236E-4,-7.635809E-4,4.5814854E-4,-55.425003,-14.85,3.525,,,,,,,,,,,,,,,,,,
SENSOR,1789661782611,41512864496015,0.15014961,0.23988047,9.864112,1.5271618E-4,4.5814854E-4,-7.635809E-4,-55.425003,-14.85,3.525,,,,,,,,,,,,,,,,,,
SENSOR,1789661782619,41512864496015,0.15014961,0.23988047,9.864112,1.5271618E-4,4.5814854E-4,-7.635809E-4,-56.325,-14.925,5.4750004,,,,,,,,,,,,,,,,,,
SENSOR,1789661782643,41512860853306,0.148355,0.23988047,9.8632145,1.5271618E-4,4.5814854E-4,-7.635809E-4,-56.325,-14.925,5.4750004,,,,,,,,,,,,,,,,,,
SENSOR,1789661782706,41512964496015,0.148355,0.23988047,9.8632145,1.5271618E-4,4.5814854E-4,4.5814854E-4,-56.325,-14.925,5.4750004,,,,,,,,,,,,,,,,,,
SENSOR,1789661782713,41512964496015,0.148355,0.23988047,9.8632145,1.5271618E-4,4.5814854E-4,4.5814854E-4,-56.175003,-14.250001,4.2000003,,,,,,,,,,,,,,,,,,
SENSOR,1789661782748,41512965034556,0.15074782,0.23928227,9.864711,1.5271618E-4,4.5814854E-4,4.5814854E-4,-56.175003,-14.250001,4.2000003,,,,,,,,,,,,,,,,,,
SENSOR,1789661782808,41513064496015,0.15074782,0.23928227,9.864711,1.5271618E-4,4.5814854E-4,-7.635809E-4,-56.175003,-14.250001,4.2000003,,,,,,,,,,,,,,,,,,
SENSOR,1789661782818,41513064496015,0.15074782,0.23928227,9.864711,1.5271618E-4,4.5814854E-4,-7.635809E-4,-55.875004,-15.000001,5.175,,,,,,,,,,,,,,,,,,
SENSOR,1789661782851,41513069215754,0.15164514,0.23958136,9.861421,1.5271618E-4,4.5814854E-4,-7.635809E-4,-55.875004,-15.000001,5.175,,,,,,,,,,,,,,,,,,
SENSOR,1789661782904,41513164496015,0.15164514,0.23958136,9.861421,1.5271618E-4,4.5814854E-4,1.5271618E-4,-55.875004,-15.000001,5.175,,,,,,,,,,,,,,,,,,
GNSS,1789661782909,,true,11.05530515,76.92705491,376.18475341796875,3.7900925,0.0,,95,35,,,,,,,,,,,,,
SENSOR,1789661782924,41513164496015,0.15164514,0.23958136,9.861421,1.5271618E-4,4.5814854E-4,1.5271618E-4,-55.95,-14.700001,4.7250004,,,,,,,,,,,,,,,,,,
GNSS,1789661783000,,true,11.05530146,76.9270579,376.412353515625,3.7900925,0.0,,95,35,,,,,,,,,,,,,
SENSOR,1789661782955,41513173396952,0.15134603,0.24107689,9.865309,1.5271618E-4,4.5814854E-4,1.5271618E-4,-55.95,-14.700001,4.7250004,,,,,,,,,,,,,,,,,,
SENSOR,1789661783008,41513264496015,0.15134603,0.24107689,9.865309,1.5271618E-4,-7.635809E-4,4.5814854E-4,-55.95,-14.700001,4.7250004,,,,,,,,,,,,,,,,,,
SENSOR,1789661783017,41513264496015,0.15134603,0.24107689,9.865309,1.5271618E-4,-7.635809E-4,4.5814854E-4,-56.025,-14.475,5.175,,,,,,,,,,,,,,,,,,
SENSOR,1789661783060,41513277578150,0.148355,0.23988047,9.862318,1.5271618E-4,-7.635809E-4,4.5814854E-4,-56.025,-14.475,5.175,,,,,,,,,,,,,,,,,,
SENSOR,1789661783104,41513364496015,0.148355,0.23988047,9.862318,1.5271618E-4,4.5814854E-4,1.5271618E-4,-56.025,-14.475,5.175,,,,,,,,,,,,,,,,,,
SENSOR,1789661783112,41513364496015,0.148355,0.23988047,9.862318,1.5271618E-4,4.5814854E-4,1.5271618E-4,-56.550003,-14.85,5.55,,,,,,,,,,,,,,,,,,
SENSOR,1789661783164,41513381759296,0.14955142,0.23898315,9.863514,1.5271618E-4,4.5814854E-4,1.5271618E-4,-56.550003,-14.85,5.55,,,,,,,,,,,,,,,,,,
SENSOR,1789661783208,41513464496015,0.14955142,0.23898315,9.863514,1.5271618E-4,-7.635809E-4,-7.635809E-4,-56.550003,-14.85,5.55,,,,,,,,,,,,,,,,,,
SENSOR,1789661783217,41513464496015,0.14955142,0.23898315,9.863514,1.5271618E-4,-7.635809E-4,-7.635809E-4,-56.175003,-14.625001,4.8,,,,,,,,,,,,,,,,,,
SENSOR,1789661783269,41513485940494,0.14895321,0.23958136,9.863514,1.5271618E-4,-7.635809E-4,-7.635809E-4,-56.175003,-14.625001,4.8,,,,,,,,,,,,,,,,,,
SENSOR,1789661783303,41513564496015,0.14895321,0.23958136,9.863514,1.5271618E-4,1.5271618E-4,1.5271618E-4,-56.175003,-14.625001,4.8,,,,,,,,,,,,,,,,,,
SENSOR,1789661783312,41513564496015,0.14895321,0.23958136,9.863514,1.5271618E-4,1.5271618E-4,1.5271618E-4,-56.625004,-14.625001,5.025,,,,,,,,,,,,,,,,,,
CELLULAR,1789661783351,,,,,,,,,,,,,,true,NR,4298047490,405,869,,75,403,634080,-108,NR_SS_RSRP,3,
SENSOR,1789661783376,41513590121640,0.14895321,0.23958136,9.860523,1.5271618E-4,1.5271618E-4,1.5271618E-4,-56.625004,-14.625001,5.025,,,,,,,,,,,,,,,,,,
SENSOR,1789661783407,41513664496015,0.14895321,0.23958136,9.860523,1.5271618E-4,-4.5814854E-4,1.5271618E-4,-56.625004,-14.625001,5.025,,,,,,,,,,,,,,,,,,
SENSOR,1789661783416,41513664496015,0.14895321,0.23958136,9.860523,1.5271618E-4,-4.5814854E-4,1.5271618E-4,-55.500004,-14.775001,3.075,,,,,,,,,,,,,,,,,,
SENSOR,1789661783477,41513694302785,0.15134603,0.24017957,9.864711,1.5271618E-4,-4.5814854E-4,1.5271618E-4,-55.500004,-14.775001,3.075,,,,,,,,,,,,,,,,,,
SENSOR,1789661783502,41513764496015,0.15134603,0.24017957,9.864711,1.5271618E-4,1.5271618E-4,4.5814854E-4,-55.500004,-14.775001,3.075,,,,,,,,,,,,,,,,,,
SENSOR,1789661783512,41513764496015,0.15134603,0.24017957,9.864711,1.5271618E-4,1.5271618E-4,4.5814854E-4,-56.250004,-14.925,4.65,,,,,,,,,,,,,,,,,,
SENSOR,1789661783581,41513798483931,0.15134603,0.23838496,9.865009,1.5271618E-4,1.5271618E-4,4.5814854E-4,-56.250004,-14.925,4.65,,,,,,,,,,,,,,,,,,
SENSOR,1789661783608,41513864496015,0.15134603,0.23838496,9.865009,1.5271618E-4,0.0,4.5814854E-4,-56.250004,-14.925,4.65,,,,,,,,,,,,,,,,,,
SENSOR,1789661783616,41513864496015,0.15134603,0.23838496,9.865009,1.5271618E-4,0.0,4.5814854E-4,-56.025,-14.625001,4.7250004,,,,,,,,,,,,,,,,,,
SENSOR,1789661783684,41513902665025,0.14895321,0.24017957,9.862318,1.5271618E-4,0.0,4.5814854E-4,-56.025,-14.625001,4.7250004,,,,,,,,,,,,,,,,,,
SENSOR,1789661783704,41513964496015,0.14895321,0.24017957,9.862318,1.5271618E-4,1.5271618E-4,-7.635809E-4,-56.025,-14.625001,4.7250004,,,,,,,,,,,,,,,,,,
SENSOR,1789661783711,41513964496015,0.14895321,0.24017957,9.862318,1.5271618E-4,1.5271618E-4,-7.635809E-4,-55.425003,-14.85,4.875,,,,,,,,,,,,,,,,,,
SENSOR,1789661783790,41514006846171,0.148355,0.23988047,9.864711,1.5271618E-4,1.5271618E-4,-7.635809E-4,-55.425003,-14.85,4.875,,,,,,,,,,,,,,,,,,
SENSOR,1789661783806,41514064496015,0.148355,0.23988047,9.864711,1.5271618E-4,4.5814854E-4,-3.0543236E-4,-55.425003,-14.85,4.875,,,,,,,,,,,,,,,,,,
SENSOR,1789661783816,41514064496015,0.148355,0.23988047,9.864711,1.5271618E-4,4.5814854E-4,-3.0543236E-4,-56.250004,-14.625001,5.4750004,,,,,,,,,,,,,,,,,,
SENSOR,1789661783894,41514111027265,0.148355,0.24137598,9.863514,1.5271618E-4,4.5814854E-4,-3.0543236E-4,-56.250004,-14.625001,5.4750004,,,,,,,,,,,,,,,,,,
SENSOR,1789661783903,41514164496015,0.148355,0.24137598,9.863514,1.5271618E-4,3.0543236E-4,4.5814854E-4,-56.250004,-14.625001,5.4750004,,,,,,,,,,,,,,,,,,
GNSS,1789661783905,,true,11.05530146,76.9270579,376.412353515625,3.7900925,0.0,,95,37,,,,,,,,,,,,,
GNSS,1789661784000,,true,11.05530375,76.92706109,376.2303466796875,3.7900925,0.0,,95,37,,,,,,,,,,,,,
SENSOR,1789661783921,41514164496015,0.148355,0.24137598,9.863514,1.5271618E-4,3.0543236E-4,4.5814854E-4,-56.100002,-14.475,5.175,,,,,,,,,,,,,,,,,,
SENSOR,1789661783998,41514215208358,0.14985052,0.23928227,9.862916,1.5271618E-4,3.0543236E-4,4.5814854E-4,-56.100002,-14.475,5.175,,,,,,,,,,,,,,,,,,
SENSOR,1789661784006,41514264496015,0.14985052,0.23928227,9.862916,-3.0543236E-4,-0.0,4.5814854E-4,-56.100002,-14.475,5.175,,,,,,,,,,,,,,,,,,
SENSOR,1789661784016,41514264496015,0.14985052,0.23928227,9.862916,-3.0543236E-4,-0.0,4.5814854E-4,-56.025,-14.925,4.2000003,,,,,,,,,,,,,,,,,,
SENSOR,1789661784102,41514364496015,0.14985052,0.23928227,9.862916,1.5271618E-4,-7.635809E-4,-7.635809E-4,-56.025,-14.925,4.2000003,,,,,,,,,,,,,,,,,,
SENSOR,1789661784102,41514319389504,0.14925231,0.23898315,9.864711,1.5271618E-4,-7.635809E-4,-7.635809E-4,-56.025,-14.925,4.2000003,,,,,,,,,,,,,,,,,,
SENSOR,1789661784120,41514364496015,0.14925231,0.23898315,9.864711,1.5271618E-4,-7.635809E-4,-7.635809E-4,-56.4,-14.55,5.3250003,,,,,,,,,,,,,,,,,,
SENSOR,1789661784206,41514464496015,0.14925231,0.23898315,9.864711,1.5271618E-4,4.5814854E-4,-1.5271618E-4,-56.4,-14.55,5.3250003,,,,,,,,,,,,,,,,,,
SENSOR,1789661784207,41514423570546,0.15044872,0.24137598,9.862617,1.5271618E-4,4.5814854E-4,-1.5271618E-4,-56.4,-14.55,5.3250003,,,,,,,,,,,,,,,,,,
SENSOR,1789661784215,41514464496015,0.15044872,0.24137598,9.862617,1.5271618E-4,4.5814854E-4,-1.5271618E-4,-56.325,-14.55,5.7000003,,,,,,,,,,,,,,,,,,
SENSOR,1789661784301,41514564496015,0.15044872,0.24137598,9.862617,1.5271618E-4,-7.635809E-4,4.5814854E-4,-56.325,-14.55,5.7000003,,,,,,,,,,,,,,,,,,
SENSOR,1789661784310,41514527751640,0.14955142,0.23958136,9.863813,1.5271618E-4,-7.635809E-4,4.5814854E-4,-56.325,-14.55,5.7000003,,,,,,,,,,,,,,,,,,
SENSOR,1789661784319,41514564496015,0.14955142,0.23958136,9.863813,1.5271618E-4,-7.635809E-4,4.5814854E-4,-56.250004,-14.925,5.25,,,,,,,,,,,,,,,,,,
CELLULAR,1789661784376,,,,,,,,,,,,,,true,NR,4298047490,405,869,,75,403,634080,-108,NR_SS_RSRP,3,
SENSOR,1789661784405,41514664496015,0.14955142,0.23958136,9.863813,1.5271618E-4,4.5814854E-4,-1.5271618E-4,-56.250004,-14.925,5.25,,,,,,,,,,,,,,,,,,
SENSOR,1789661784414,41514631932681,0.148355,0.24107689,9.863514,1.5271618E-4,4.5814854E-4,-1.5271618E-4,-56.250004,-14.925,5.25,,,,,,,,,,,,,,,,,,
SENSOR,1789661784414,41514664496015,0.148355,0.24107689,9.863514,1.5271618E-4,4.5814854E-4,-1.5271618E-4,-55.65,-15.375001,3.6750002,,,,,,,,,,,,,,,,,,
SENSOR,1789661784500,41514764496015,0.148355,0.24107689,9.863514,1.5271618E-4,4.5814854E-4,-7.635809E-4,-55.65,-15.375001,3.6750002,,,,,,,,,,,,,,,,,,
SENSOR,1789661784517,41514736113723,0.14955142,0.23988047,9.863813,1.5271618E-4,4.5814854E-4,-7.635809E-4,-55.65,-15.375001,3.6750002,,,,,,,,,,,,,,,,,,
SENSOR,1789661784518,41514764496015,0.14955142,0.23988047,9.863813,1.5271618E-4,4.5814854E-4,-7.635809E-4,-55.050003,-14.700001,3.3000002,,,,,,,,,,,,,,,,,,
SENSOR,1789661784605,41514864496015,0.14955142,0.23988047,9.863813,1.5271618E-4,-7.635809E-4,-7.635809E-4,-55.050003,-14.700001,3.3000002,,,,,,,,,,,,,,,,,,
SENSOR,1789661784614,41514864496015,0.14955142,0.23988047,9.863813,1.5271618E-4,-7.635809E-4,-7.635809E-4,-55.350002,-14.925,3.075,,,,,,,,,,,,,,,,,,
SENSOR,1789661784622,41514840294765,0.15014961,0.23868406,9.8632145,1.5271618E-4,-7.635809E-4,-7.635809E-4,-55.350002,-14.925,3.075,,,,,,,,,,,,,,,,,,
SENSOR,1789661784710,41514964496015,0.15014961,0.23868406,9.8632145,1.5271618E-4,4.5814854E-4,4.5814854E-4,-55.350002,-14.925,3.075,,,,,,,,,,,,,,,,,,
SENSOR,1789661784719,41514964496015,0.15014961,0.23868406,9.8632145,1.5271618E-4,4.5814854E-4,4.5814854E-4,-56.250004,-15.450001,5.4750004,,,,,,,,,,,,,,,,,,
SENSOR,1789661784726,41514944475806,0.15074782,0.23838496,9.865309,1.5271618E-4,4.5814854E-4,4.5814854E-4,-56.250004,-15.450001,5.4750004,,,,,,,,,,,,,,,,,,
SENSOR,1789661784805,41515064496015,0.15074782,0.23838496,9.865309,-6.108647E-4,6.108647E-4,1.5271618E-4,-56.250004,-15.450001,5.4750004,,,,,,,,,,,,,,,,,,
SENSOR,1789661784814,41515064496015,0.15074782,0.23838496,9.865309,-6.108647E-4,6.108647E-4,1.5271618E-4,-55.425003,-14.775001,3.525,,,,,,,,,,,,,,,,,,
SENSOR,1789661784832,41515048656848,0.1480559,0.23898315,9.865009,-6.108647E-4,6.108647E-4,1.5271618E-4,-55.425003,-14.775001,3.525,,,,,,,,,,,,,,,,,,
GNSS,1789661784905,,true,11.05530375,76.92706109,376.2303466796875,3.7900925,0.0,,95,39,,,,,,,,,,,,,
SENSOR,1789661784921,41515164496015,0.1480559,0.23898315,9.865009,1.5271618E-4,-6.108647E-4,3.0543236E-4,-55.425003,-14.775001,3.525,,,,,,,,,,,,,,,,,,
SENSOR,1789661784921,41515164496015,0.1480559,0.23898315,9.865009,1.5271618E-4,-6.108647E-4,3.0543236E-4,-55.95,-14.85,5.25,,,,,,,,,,,,,,,,,,
GNSS,1789661785000,,true,11.05530201,76.92706188,376.4627685546875,3.7900925,0.0,,95,39,,,,,,,,,,,,,
SENSOR,1789661784935,41515152837837,0.15074782,0.24077778,9.862318,1.5271618E-4,-6.108647E-4,3.0543236E-4,-55.95,-14.85,5.25,,,,,,,,,,,,,,,,,,
SENSOR,1789661785005,41515264496015,0.15074782,0.24077778,9.862318,1.5271618E-4,4.5814854E-4,-1.5271618E-4,-55.95,-14.85,5.25,,,,,,,,,,,,,,,,,,
SENSOR,1789661785014,41515264496015,0.15074782,0.24077778,9.862318,1.5271618E-4,4.5814854E-4,-1.5271618E-4,-56.4,-15.000001,3.9,,,,,,,,,,,,,,,,,,
SENSOR,1789661785040,41515257018879,0.14985052,0.23898315,9.864112,1.5271618E-4,4.5814854E-4,-1.5271618E-4,-56.4,-15.000001,3.9,,,,,,,,,,,,,,,,,,
SENSOR,1789661785108,41515364496015,0.14985052,0.23898315,9.864112,1.5271618E-4,4.5814854E-4,-7.635809E-4,-56.4,-15.000001,3.9,,,,,,,,,,,,,,,,,,
SENSOR,1789661785119,41515364496015,0.14985052,0.23898315,9.864112,1.5271618E-4,4.5814854E-4,-7.635809E-4,-55.95,-14.775001,4.5,,,,,,,,,,,,,,,,,,
SENSOR,1789661785143,41515361199869,0.14985052,0.23718855,9.862617,1.5271618E-4,4.5814854E-4,-7.635809E-4,-55.95,-14.775001,4.5,,,,,,,,,,,,,,,,,,
SENSOR,1789661785204,41515464496015,0.14985052,0.23718855,9.862617,-0.0010690133,-7.635809E-4,-3.0543236E-4,-55.95,-14.775001,4.5,,,,,,,,,,,,,,,,,,
SENSOR,1789661785213,41515464496015,0.14985052,0.23718855,9.862617,-0.0010690133,-7.635809E-4,-3.0543236E-4,-56.550003,-15.150001,5.1000004,,,,,,,,,,,,,,,,,,
SENSOR,1789661785248,41515465380806,0.148355,0.23778675,9.862916,-0.0010690133,-7.635809E-4,-3.0543236E-4,-56.550003,-15.150001,5.1000004,,,,,,,,,,,,,,,,,,
SENSOR,1789661785308,41515564496015,0.148355,0.23778675,9.862916,1.5271618E-4,4.5814854E-4,4.5814854E-4,-56.550003,-15.150001,5.1000004,,,,,,,,,,,,,,,,,,
SENSOR,1789661785318,41515564496015,0.148355,0.23778675,9.862916,1.5271618E-4,4.5814854E-4,4.5814854E-4,-55.725002,-15.3,3.3000002,,,,,,,,,,,,,,,,,,
SENSOR,1789661785351,41515569561796,0.14985052,0.23748764,9.864711,1.5271618E-4,4.5814854E-4,4.5814854E-4,-55.725002,-15.3,3.3000002,,,,,,,,,,,,,,,,,,
CELLULAR,1789661785399,,,,,,,,,,,,,,true,NR,4298047490,405,869,,75,403,634080,-108,NR_SS_RSRP,3,
SENSOR,1789661785407,41515664496015,0.14985052,0.23748764,9.864711,-6.108647E-4,4.5814854E-4,-4.5814854E-4,-55.725002,-15.3,3.3000002,,,,,,,,,,,,,,,,,,
SENSOR,1789661785413,41515664496015,0.14985052,0.23748764,9.864711,-6.108647E-4,4.5814854E-4,-4.5814854E-4,-53.850002,-14.775001,-0.6,,,,,,,,,,,,,,,,,,
SENSOR,1789661785456,41515673742733,0.15104693,0.24137598,9.864112,-6.108647E-4,4.5814854E-4,-4.5814854E-4,-53.850002,-14.775001,-0.6,,,,,,,,,,,,,,,,,,
SENSOR,1789661785508,41515764496015,0.15104693,0.24137598,9.864112,-0.0044287695,-0.009162971,4.5814854E-4,-53.850002,-14.775001,-0.6,,,,,,,,,,,,,,,,,,
SENSOR,1789661785517,41515764496015,0.15104693,0.24137598,9.864112,-0.0044287695,-0.009162971,4.5814854E-4,-54.600002,-14.775001,2.1000001,,,,,,,,,,,,,,,,,,
SENSOR,1789661785561,41515777923723,0.15044872,0.23868406,9.865009,-0.0044287695,-0.009162971,4.5814854E-4,-54.600002,-14.775001,2.1000001,,,,,,,,,,,,,,,,,,
SENSOR,1789661785605,41515864496015,0.15044872,0.23868406,9.865009,0.0036651883,0.008093958,-7.635809E-4,-54.600002,-14.775001,2.1000001,,,,,,,,,,,,,,,,,,
SENSOR,1789661785613,41515864496015,0.15044872,0.23868406,9.865009,0.0036651883,0.008093958,-7.635809E-4,-55.800003,-14.55,4.7250004,,,,,,,,,,,,,,,,,,
SENSOR,1789661785665,41515882104660,0.15014961,0.23898315,9.861121,0.0036651883,0.008093958,-7.635809E-4,-55.800003,-14.55,4.7250004,,,,,,,,,,,,,,,,,,
SENSOR,1789661785707,41515964496015,0.15014961,0.23898315,9.861121,-0.008552106,-0.021074833,4.5814854E-4,-55.800003,-14.55,4.7250004,,,,,,,,,,,,,,,,,,
SENSOR,1789661785719,41515964496015,0.15014961,0.23898315,9.861121,-0.008552106,-0.021074833,4.5814854E-4,-55.575,-14.925,3.15,,,,,,,,,,,,,,,,,,
SENSOR,1789661785769,41515986285598,0.14745769,0.24017957,9.863813,-0.008552106,-0.021074833,4.5814854E-4,-55.575,-14.925,3.15,,,,,,,,,,,,,,,,,,
SENSOR,1789661785803,41516064496015,0.14745769,0.24017957,9.863813,0.0032070398,0.0087048225,-7.635809E-4,-55.575,-14.925,3.15,,,,,,,,,,,,,,,,,,
SENSOR,1789661785812,41516064496015,0.14745769,0.24017957,9.863813,0.0032070398,0.0087048225,-7.635809E-4,-55.725002,-14.625001,3.6000001,,,,,,,,,,,,,,,,,,
SENSOR,1789661785872,41516090466483,0.15373886,0.23808585,9.862318,0.0032070398,0.0087048225,-7.635809E-4,-55.725002,-14.625001,3.6000001,,,,,,,,,,,,,,,,,,
GNSS,1789661785904,,true,11.05530201,76.92706188,376.4627685546875,3.7900925,0.0,,95,40,,,,,,,,,,,,,
SENSOR,1789661785919,41516164496015,0.15373886,0.23808585,9.862318,-7.635809E-4,-0.0022907427,4.5814854E-4,-55.725002,-14.625001,3.6000001,,,,,,,,,,,,,,,,,,
SENSOR,1789661785920,41516164496015,0.15373886,0.23808585,9.862318,-7.635809E-4,-0.0022907427,4.5814854E-4,-56.4,-14.700001,4.5,,,,,,,,,,,,,,,,,,
GNSS,1789661786000,,true,11.05530195,76.92706204,376.57958984375,3.7900925,0.0,,95,40,,,,,,,,,,,,,
SENSOR,1789661785978,41516194647421,0.14895321,0.23928227,9.864112,-7.635809E-4,-0.0022907427,4.5814854E-4,-56.4,-14.700001,4.5,,,,,,,,,,,,,,,,,,
SENSOR,1789661786003,41516264496015,0.14895321,0.23928227,9.864112,4.5814854E-4,0.0029016074,4.5814854E-4,-56.4,-14.700001,4.5,,,,,,,,,,,,,,,,,,
SENSOR,1789661786013,41516264496015,0.14895321,0.23928227,9.864112,4.5814854E-4,0.0029016074,4.5814854E-4,-55.875004,-15.000001,3.3750002,,,,,,,,,,,,,,,,,,
SENSOR,1789661786082,41516298828306,0.1486541,0.24017957,9.8632145,4.5814854E-4,0.0029016074,4.5814854E-4,-55.875004,-15.000001,3.3750002,,,,,,,,,,,,,,,,,,
SENSOR,1789661786108,41516364496015,0.1486541,0.24017957,9.8632145,-6.108647E-4,-3.0543236E-4,-4.5814854E-4,-55.875004,-15.000001,3.3750002,,,,,,,,,,,,,,,,,,
SENSOR,1789661786117,41516364496015,0.1486541,0.24017957,9.8632145,-6.108647E-4,-3.0543236E-4,-4.5814854E-4,-55.425003,-14.625001,3.6000001,,,,,,,,,,,,,,,,,,
SENSOR,1789661786186,41516403009244,0.14895321,0.23928227,9.862916,-6.108647E-4,-3.0543236E-4,-4.5814854E-4,-55.425003,-14.625001,3.6000001,,,,,,,,,,,,,,,,,,
SENSOR,1789661786203,41516464496015,0.14895321,0.23928227,9.862916,1.5271618E-4,-4.5814854E-4,4.5814854E-4,-55.425003,-14.625001,3.6000001,,,,,,,,,,,,,,,,,,
SENSOR,1789661786212,41516464496015,0.14895321,0.23928227,9.862916,1.5271618E-4,-4.5814854E-4,4.5814854E-4,-56.100002,-14.700001,4.9500003,,,,,,,,,,,,,,,,,,
SENSOR,1789661786290,41516507190129,0.15014961,0.24017957,9.861719,1.5271618E-4,-4.5814854E-4,4.5814854E-4,-56.100002,-14.700001,4.9500003,,,,,,,,,,,,,,,,,,
SENSOR,1789661786308,41516564496015,0.15014961,0.24017957,9.861719,-0.0018325942,-0.0041233366,0.0,-56.100002,-14.700001,4.9500003,,,,,,,,,,,,,,,,,,
SENSOR,1789661786316,41516564496015,0.15014961,0.24017957,9.861719,-0.0018325942,-0.0041233366,0.0,-55.575,-14.775001,5.4750004,,,,,,,,,,,,,,,,,,
SENSOR,1789661786394,41516611371015,0.15164514,0.23808585,9.857831,-0.0018325942,-0.0041233366,0.0,-55.575,-14.775001,5.4750004,,,,,,,,,,,,,,,,,,
SENSOR,1789661786402,41516664496015,0.15164514,0.23808585,9.857831,0.0013744456,0.0027488912,4.5814854E-4,-55.575,-14.775001,5.4750004,,,,,,,,,,,,,,,,,,
CELLULAR,1789661786407,,,,,,,,,,,,,,true,NR,4298047490,405,869,,75,403,634080,-108,NR_SS_RSRP,3,
SENSOR,1789661786431,41516664496015,0.15164514,0.23808585,9.857831,0.0013744456,0.0027488912,4.5814854E-4,-55.95,-15.075001,4.125,,,,,,,,,,,,,,,,,,
SENSOR,1789661786498,41516715551900,0.14955142,0.24077778,9.863514,0.0013744456,0.0027488912,4.5814854E-4,-55.95,-15.075001,4.125,,,,,,,,,,,,,,,,,,
SENSOR,1789661786507,41516764496015,0.14955142,0.24077778,9.863514,1.5271618E-4,4.5814854E-4,-3.0543236E-4,-55.95,-15.075001,4.125,,,,,,,,,,,,,,,,,,
SENSOR,1789661786515,41516764496015,0.14955142,0.24077778,9.863514,1.5271618E-4,4.5814854E-4,-3.0543236E-4,-55.95,-14.925,4.875,,,,,,,,,,,,,,,,,,
SENSOR,1789661786602,41516819732733,0.15014961,0.23958136,9.863813,1.5271618E-4,4.5814854E-4,-3.0543236E-4,-55.95,-14.925,4.875,,,,,,,,,,,,,,,,,,
SENSOR,1789661786602,41516864496015,0.15014961,0.23958136,9.863813,0.0,3.0543236E-4,4.5814854E-4,-55.95,-14.925,4.875,,,,,,,,,,,,,,,,,,
SENSOR,1789661786619,41516864496015,0.15014961,0.23958136,9.863813,0.0,3.0543236E-4,4.5814854E-4,-55.425003,-14.700001,2.8500001,,,,,,,,,,,,,,,,,,
SENSOR,1789661786714,41516923913619,0.1486541,0.23838496,9.862916,0.0,3.0543236E-4,4.5814854E-4,-55.425003,-14.700001,2.8500001,,,,,,,,,,,,,,,,,,
SENSOR,1789661786714,41516964496015,0.1486541,0.23838496,9.862916,1.5271618E-4,0.0010690133,4.5814854E-4,-55.425003,-14.700001,2.8500001,,,,,,,,,,,,,,,,,,
SENSOR,1789661786716,41516964496015,0.1486541,0.23838496,9.862916,1.5271618E-4,0.0010690133,4.5814854E-4,-56.100002,-14.700001,5.175,,,,,,,,,,,,,,,,,,
SENSOR,1789661786803,41517064496015,0.1486541,0.23838496,9.862916,-0.0022907427,-0.005803215,4.5814854E-4,-56.100002,-14.700001,5.175,,,,,,,,,,,,,,,,,,
SENSOR,1789661786810,41517028094504,0.14955142,0.24017957,9.862617,-0.0022907427,-0.005803215,4.5814854E-4,-56.100002,-14.700001,5.175,,,,,,,,,,,,,,,,,,
SENSOR,1789661786820,41517064496015,0.14955142,0.24017957,9.862617,-0.0022907427,-0.005803215,4.5814854E-4,-56.625004,-14.925,5.625,,,,,,,,,,,,,,,,,,
GNSS,1789661786901,,true,11.05530195,76.92706204,376.57958984375,3.7900925,0.0,,95,40,,,,,,,,,,,,,
SENSOR,1789661786916,41517164496015,0.14955142,0.24017957,9.862617,0.0010690133,0.0029016074,4.5814854E-4,-56.625004,-14.925,5.625,,,,,,,,,,,,,,,,,,
SENSOR,1789661786916,41517164496015,0.14955142,0.24017957,9.862617,0.0010690133,0.0029016074,4.5814854E-4,-55.800003,-14.775001,4.65,,,,,,,,,,,,,,,,,,
SENSOR,1789661786916,41517132275390,0.15254244,0.23659034,9.860822,0.0010690133,0.0029016074,4.5814854E-4,-55.800003,-14.775001,4.65,,,,,,,,,,,,,,,,,,
GNSS,1789661787000,,true,11.05530216,76.9270628,376.385986328125,3.7900925,0.0,,95,40,,,,,,,,,,,,,
SENSOR,1789661787002,41517264496015,0.15254244,0.23659034,9.860822,1.5271618E-4,6.108647E-4,4.5814854E-4,-55.800003,-14.775001,4.65,,,,,,,,,,,,,,,,,,
SENSOR,1789661787019,41517236456223,0.14895321,0.23958136,9.859925,1.5271618E-4,6.108647E-4,4.5814854E-4,-55.800003,-14.775001,4.65,,,,,,,,,,,,,,,,,,
SENSOR,1789661787020,41517264496015,0.14895321,0.23958136,9.859925,1.5271618E-4,6.108647E-4,4.5814854E-4,-56.025,-14.700001,4.875,,,,,,,,,,,,,,,,,,
SENSOR,1789661787106,41517364496015,0.14895321,0.23958136,9.859925,1.5271618E-4,0.0010690133,-1.5271618E-4,-56.025,-14.700001,4.875,,,,,,,,,,,,,,,,,,
SENSOR,1789661787115,41517364496015,0.14895321,0.23958136,9.859925,1.5271618E-4,0.0010690133,-1.5271618E-4,-55.575,-14.775001,3.825,,,,,,,,,,,,,,,,,,
SENSOR,1789661787123,41517340637108,0.14895321,0.24017957,9.861421,1.5271618E-4,0.0010690133,-1.5271618E-4,-55.575,-14.775001,3.825,,,,,,,,,,,,,,,,,,
SENSOR,1789661787201,41517464496015,0.14895321,0.24017957,9.861421,-0.0045814854,-0.009010254,-7.635809E-4,-55.575,-14.775001,3.825,,,,,,,,,,,,,,,,,,
SENSOR,1789661787220,41517464496015,0.14895321,0.24017957,9.861421,-0.0045814854,-0.009010254,-7.635809E-4,-55.275,-14.55,3.9750001,,,,,,,,,,,,,,,,,,
SENSOR,1789661787228,41517444817994,0.14895321,0.23868406,9.855438,-0.0045814854,-0.009010254,-7.635809E-4,-55.275,-14.55,3.9750001,,,,,,,,,,,,,,,,,,
SENSOR,1789661787306,41517564496015,0.14895321,0.23868406,9.855438,0.0013744456,0.0047342014,4.5814854E-4,-55.275,-14.55,3.9750001,,,,,,,,,,,,,,,,,,
SENSOR,1789661787314,41517564496015,0.14895321,0.23868406,9.855438,0.0013744456,0.0047342014,4.5814854E-4,-56.325,-14.925,5.4750004,,,,,,,,,,,,,,,,,,
SENSOR,1789661787332,41517548998827,0.15433706,0.23748764,9.859925,0.0013744456,0.0047342014,4.5814854E-4,-56.325,-14.925,5.4750004,,,,,,,,,,,,,,,,,,
SENSOR,1789661787409,41517664496015,0.15433706,0.23748764,9.859925,-0.0010690133,-0.0018325942,4.5814854E-4,-56.325,-14.925,5.4750004,,,,,,,,,,,,,,,,,,
SENSOR,1789661787419,41517664496015,0.15433706,0.23748764,9.859925,-0.0010690133,-0.0018325942,4.5814854E-4,-56.475002,-14.625001,5.025,,,,,,,,,,,,,,,,,,
CELLULAR,1789661787431,,,,,,,,,,,,,,true,NR,4298047490,405,869,,75,403,634080,-108,NR_SS_RSRP,3,
SENSOR,1789661787455,41517653179712,0.1471586,0.23868406,9.860523,-0.0010690133,-0.0018325942,4.5814854E-4,-56.475002,-14.625001,5.025,,,,,,,,,,,,,,,,,,
SENSOR,1789661787505,41517764496015,0.1471586,0.23868406,9.860523,1.5271618E-4,0.0010690133,4.5814854E-4,-56.475002,-14.625001,5.025,,,,,,,,,,,,,,,,,,
SENSOR,1789661787514,41517764496015,0.1471586,0.23868406,9.860523,1.5271618E-4,0.0010690133,4.5814854E-4,-55.800003,-14.775001,4.875,,,,,,,,,,,,,,,,,,
SENSOR,1789661787539,41517757360546,0.15194423,0.23958136,9.860822,1.5271618E-4,0.0010690133,4.5814854E-4,-55.800003,-14.775001,4.875,,,,,,,,,,,,,,,,,,
SENSOR,1789661787611,41517864496015,0.15194423,0.23958136,9.860822,-0.0022907427,-0.005803215,4.5814854E-4,-55.800003,-14.775001,4.875,,,,,,,,,,,,,,,,,,
SENSOR,1789661787619,41517864496015,0.15194423,0.23958136,9.860822,-0.0022907427,-0.005803215,4.5814854E-4,-56.100002,-14.700001,5.25,,,,,,,,,,,,,,,,,,
SENSOR,1789661787644,41517861541431,0.15134603,0.23898315,9.860523,-0.0022907427,-0.005803215,4.5814854E-4,-56.100002,-14.700001,5.25,,,,,,,,,,,,,,,,,,
SENSOR,1789661787705,41517964496015,0.15134603,0.23898315,9.860523,9.162971E-4,0.002443459,4.5814854E-4,-56.100002,-14.700001,5.25,,,,,,,,,,,,,,,,,,
SENSOR,1789661787714,41517964496015,0.15134603,0.23898315,9.860523,9.162971E-4,0.002443459,4.5814854E-4,-56.175003,-14.625001,5.175,,,,,,,,,,,,,,,,,,
SENSOR,1789661787748,41517965722317,0.15493527,0.23808585,9.860224,9.162971E-4,0.002443459,4.5814854E-4,-56.175003,-14.625001,5.175,,,,,,,,,,,,,,,,,,
SENSOR,1789661787809,41518064496015,0.15493527,0.23808585,9.860224,0.003359756,0.0054977825,4.5814854E-4,-56.175003,-14.625001,5.175,,,,,,,,,,,,,,,,,,
SENSOR,1789661787819,41518064496015,0.15493527,0.23808585,9.860224,0.003359756,0.0054977825,4.5814854E-4,-56.025,-14.775001,5.025,,,,,,,,,,,,,,,,,,
SENSOR,1789661787853,41518069903150,0.15284155,0.23898315,9.859925,0.003359756,0.0054977825,4.5814854E-4,-56.025,-14.775001,5.025,,,,,,,,,,,,,,,,,,
GNSS,1789661787904,,true,11.05530216,76.9270628,376.385986328125,3.7900925,0.0,,95,41,,,,,,,,,,,,,
SENSOR,1789661787918,41518164496015,0.15284155,0.23898315,9.859925,-3.0543236E-4,0.0,4.5814854E-4,-56.025,-14.775001,5.025,,,,,,,,,,,,,,,,,,
SENSOR,1789661787918,41518164496015,0.15284155,0.23898315,9.859925,-3.0543236E-4,0.0,4.5814854E-4,-55.875004,-14.625001,4.9500003,,,,,,,,,,,,,,,,,,
GNSS,1789661788000,,true,11.05530435,76.927068,376.95697021484375,3.7900925,0.0,,95,41,,,,,,,,,,,,,
SENSOR,1789661787957,41518174084035,0.15014961,0.24017957,9.85813,-3.0543236E-4,0.0,4.5814854E-4,-55.875004,-14.625001,4.9500003,,,,,,,,,,,,,,,,,,
SENSOR,1789661788011,41518264496015,0.15014961,0.24017957,9.85813,-0.0012217294,-0.0012217294,-6.108647E-4,-55.875004,-14.625001,4.9500003,,,,,,,,,,,,,,,,,,
SENSOR,1789661788017,41518264496015,0.15014961,0.24017957,9.85813,-0.0012217294,-0.0012217294,-6.108647E-4,-56.100002,-14.475,4.7250004,,,,,,,,,,,,,,,,,,
SENSOR,1789661788061,41518278264921,0.15164514,0.23898315,9.862318,-0.0012217294,-0.0012217294,-6.108647E-4,-56.100002,-14.475,4.7250004,,,,,,,,,,,,,,,,,,
SENSOR,1789661788105,41518364496015,0.15164514,0.23898315,9.862318,-1.5271618E-4,-0.0018325942,-0.0,-56.100002,-14.475,4.7250004,,,,,,,,,,,,,,,,,,
SENSOR,1789661788112,41518364496015,0.15164514,0.23898315,9.862318,-1.5271618E-4,-0.0018325942,-0.0,-56.025,-14.625001,5.4750004,,,,,,,,,,,,,,,,,,
SENSOR,1789661788165,41518382445754,0.15134603,0.23688944,9.860523,-1.5271618E-4,-0.0018325942,-0.0,-56.025,-14.625001,5.4750004,,,,,,,,,,,,,,,,,,
SENSOR,1789661788209,41518464496015,0.15134603,0.23688944,9.860523,0.002596175,0.0065667955,-7.635809E-4,-56.025,-14.625001,5.4750004,,,,,,,,,,,,,,,,,,
SENSOR,1789661788218,41518464496015,0.15134603,0.23688944,9.860523,0.002596175,0.0065667955,-7.635809E-4,-56.325,-14.625001,4.65,,,,,,,,,,,,,,,,,,
SENSOR,1789661788269,41518486626640,0.15104693,0.23659034,9.859626,0.002596175,0.0065667955,-7.635809E-4,-56.325,-14.625001,4.65,,,,,,,,,,,,,,,,,,
SENSOR,1789661788304,41518564496015,0.15104693,0.23659034,9.859626,7.635809E-4,-6.108647E-4,-7.635809E-4,-56.325,-14.625001,4.65,,,,,,,,,,,,,,,,,,
SENSOR,1789661788313,41518564496015,0.15104693,0.23659034,9.859626,7.635809E-4,-6.108647E-4,-7.635809E-4,-56.025,-14.625001,5.55,,,,,,,,,,,,,,,,,,
SENSOR,1789661788374,41518590807525,0.14985052,0.24107689,9.861121,7.635809E-4,-6.108647E-4,-7.635809E-4,-56.025,-14.625001,5.55,,,,,,,,,,,,,,,,,,
SENSOR,1789661788408,41518664496015,0.14985052,0.24107689,9.861121,-0.0010690133,-9.162971E-4,4.5814854E-4,-56.025,-14.625001,5.55,,,,,,,,,,,,,,,,,,
SENSOR,1789661788417,41518664496015,0.14985052,0.24107689,9.861121,-0.0010690133,-9.162971E-4,4.5814854E-4,-55.800003,-14.925,5.1000004,,,,,,,,,,,,,,,,,,
CELLULAR,1789661788457,,,,,,,,,,,,,,true,NR,4298047490,405,869,,75,403,634080,-108,NR_SS_RSRP,3,
SENSOR,1789661788480,41518694988358,0.15014961,0.23838496,9.860523,-0.0010690133,-9.162971E-4,4.5814854E-4,-55.800003,-14.925,5.1000004,,,,,,,,,,,,,,,,,,
SENSOR,1789661788503,41518764496015,0.15014961,0.23838496,9.860523,-1.5271618E-4,-0.0010690133,4.5814854E-4,-55.800003,-14.925,5.1000004,,,,,,,,,,,,,,,,,,
SENSOR,1789661788512,41518764496015,0.15014961,0.23838496,9.860523,-1.5271618E-4,-0.0010690133,4.5814854E-4,-55.500004,-14.475,4.125,,,,,,,,,,,,,,,,,,
SENSOR,1789661788582,41518799169244,0.15044872,0.23868406,9.863514,-1.5271618E-4,-0.0010690133,4.5814854E-4,-55.500004,-14.475,4.125,,,,,,,,,,,,,,,,,,
SENSOR,1789661788608,41518864496015,0.15044872,0.23868406,9.863514,1.5271618E-4,3.0543236E-4,-7.635809E-4,-55.500004,-14.475,4.125,,,,,,,,,,,,,,,,,,
SENSOR,1789661788616,41518864496015,0.15044872,0.23868406,9.863514,1.5271618E-4,3.0543236E-4,-7.635809E-4,-56.025,-14.925,5.775,,,,,,,,,,,,,,,,,,
SENSOR,1789661788686,41518903350129,0.15044872,0.24047868,9.862916,1.5271618E-4,3.0543236E-4,-7.635809E-4,-56.025,-14.925,5.775,,,,,,,,,,,,,,,,,,
SENSOR,1789661788703,41518964496015,0.15044872,0.24047868,9.862916,-0.0013744456,-0.002596175,4.5814854E-4,-56.025,-14.925,5.775,,,,,,,,,,,,,,,,,,
SENSOR,1789661788711,41518964496015,0.15044872,0.24047868,9.862916,-0.0013744456,-0.002596175,4.5814854E-4,-56.100002,-14.400001,5.25,,,,,,,,,,,,,,,,,,
SENSOR,1789661788790,41519007530962,0.14955142,0.24077778,9.861121,-0.0013744456,-0.002596175,4.5814854E-4,-56.100002,-14.400001,5.25,,,,,,,,,,,,,,,,,,
SENSOR,1789661788808,41519064496015,0.14955142,0.24077778,9.861121,0.0010690133,0.0032070398,4.5814854E-4,-56.100002,-14.400001,5.25,,,,,,,,,,,,,,,,,,
SENSOR,1789661788816,41519064496015,0.14955142,0.24077778,9.861121,0.0010690133,0.0032070398,4.5814854E-4,-55.575,-14.925,4.875,,,,,,,,,,,,,,,,,,
SENSOR,1789661788894,41519111711848,0.14985052,0.23868406,9.862318,0.0010690133,0.0032070398,4.5814854E-4,-55.575,-14.925,4.875,,,,,,,,,,,,,,,,,,
GNSS,1789661788900,,true,11.05530435,76.927068,376.95697021484375,3.7900925,0.0,,95,40,,,,,,,,,,,,,
SENSOR,1789661788911,41519164496015,0.14985052,0.23868406,9.862318,9.162971E-4,0.0029016074,-7.635809E-4,-55.575,-14.925,4.875,,,,,,,,,,,,,,,,,,
GNSS,1789661789000,,true,11.05530434,76.92706674,377.21435546875,3.7900925,0.0,,95,40,,,,,,,,,,,,,
SENSOR,1789661788914,41519164496015,0.14985052,0.23868406,9.862318,9.162971E-4,0.0029016074,-7.635809E-4,-55.725002,-14.700001,3.9,,,,,,,,,,,,,,,,,,
SENSOR,1789661788998,41519215892733,0.14955142,0.23718855,9.859925,9.162971E-4,0.0029016074,-7.635809E-4,-55.725002,-14.700001,3.9,,,,,,,,,,,,,,,,,,
SENSOR,1789661789006,41519264496015,0.14955142,0.23718855,9.859925,0.0022907427,0.0045814854,-7.635809E-4,-55.725002,-14.700001,3.9,,,,,,,,,,,,,,,,,,
SENSOR,1789661789015,41519264496015,0.14955142,0.23718855,9.859925,0.0022907427,0.0045814854,-7.635809E-4,-55.275,-14.55,3.075,,,,,,,,,,,,,,,,,,
SENSOR,1789661789103,41519320073567,0.15074782,0.23778675,9.861421,0.0022907427,0.0045814854,-7.635809E-4,-55.275,-14.55,3.075,,,,,,,,,,,,,,,,,,
SENSOR,1789661789103,41519364496015,0.15074782,0.23778675,9.861421,0.0018325942,0.003359756,-6.108647E-4,-55.275,-14.55,3.075,,,,,,,,,,,,,,,,,,
SENSOR,1789661789111,41519364496015,0.15074782,0.23778675,9.861421,0.0018325942,0.003359756,-6.108647E-4,-55.800003,-14.700001,5.25,,,,,,,,,,,,,,,,,,
SENSOR,1789661789207,41519424254400,0.15613168,0.23898315,9.861719,0.0018325942,0.003359756,-6.108647E-4,-55.800003,-14.700001,5.25,,,,,,,,,,,,,,,,,,
SENSOR,1789661789207,41519464496015,0.15613168,0.23898315,9.861719,0.0044287695,0.010690132,-7.635809E-4,-55.800003,-14.700001,5.25,,,,,,,,,,,,,,,,,,
SENSOR,1789661789216,41519464496015,0.15613168,0.23898315,9.861719,0.0044287695,0.010690132,-7.635809E-4,-56.250004,-15.225,5.3250003,,,,,,,,,,,,,,,,,,
SENSOR,1789661789302,41519564496015,0.15613168,0.23898315,9.861719,0.0,-0.0010690133,4.5814854E-4,-56.250004,-15.225,5.3250003,,,,,,,,,,,,,,,,,,
SENSOR,1789661789310,41519528435233,0.15284155,0.23778675,9.862617,0.0,-0.0010690133,4.5814854E-4,-56.250004,-15.225,5.3250003,,,,,,,,,,,,,,,,,,
SENSOR,1789661789320,41519564496015,0.15284155,0.23778675,9.862617,0.0,-0.0010690133,4.5814854E-4,-55.65,-14.775001,4.8,,,,,,,,,,,,,,,,,,
SENSOR,1789661789407,41519664496015,0.15284155,0.23778675,9.862617,0.0012217294,0.0012217294,-0.0,-55.65,-14.775001,4.8,,,,,,,,,,,,,,,,,,
SENSOR,1789661789415,41519632616119,0.14895321,0.23928227,9.863514,0.0012217294,0.0012217294,-0.0,-55.65,-14.775001,4.8,,,,,,,,,,,,,,,,,,
SENSOR,1789661789415,41519664496015,0.14895321,0.23928227,9.863514,0.0012217294,0.0012217294,-0.0,-56.325,-14.925,4.5,,,,,,,,,,,,,,,,,,
CELLULAR,1789661789480,,,,,,,,,,,,,,true,NR,4298047490,405,869,,75,403,634080,-108,NR_SS_RSRP,3,
SENSOR,1789661789510,41519764496015,0.14895321,0.23928227,9.863514,0.0013744456,0.004276053,4.5814854E-4,-56.325,-14.925,4.5,,,,,,,,,,,,,,,,,,
SENSOR,1789661789520,41519736796952,0.15343975,0.23868406,9.862318,0.0013744456,0.004276053,4.5814854E-4,-56.325,-14.925,4.5,,,,,,,,,,,,,,,,,,
SENSOR,1789661789521,41519764496015,0.15343975,0.23868406,9.862318,0.0013744456,0.004276053,4.5814854E-4,-56.100002,-14.625001,5.175,,,,,,,,,,,,,,,,,,
SENSOR,1789661789607,41519864496015,0.15343975,0.23868406,9.862318,7.635809E-4,0.0015271618,-7.635809E-4,-56.100002,-14.625001,5.175,,,,,,,,,,,,,,,,,,
SENSOR,1789661789615,41519864496015,0.15343975,0.23868406,9.862318,7.635809E-4,0.0015271618,-7.635809E-4,-56.025,-14.775001,4.3500004,,,,,,,,,,,,,,,,,,
SENSOR,1789661789623,41519840977733,0.14895321,0.24077778,9.865907,7.635809E-4,0.0015271618,-7.635809E-4,-56.025,-14.775001,4.3500004,,,,,,,,,,,,,,,,,,
SENSOR,1789661789702,41519964496015,0.14895321,0.24077778,9.865907,-0.0010690133,-7.635809E-4,3.0543236E-4,-56.025,-14.775001,4.3500004,,,,,,,,,,,,,,,,,,
SENSOR,1789661789719,41519964496015,0.14895321,0.24077778,9.865907,-0.0010690133,-7.635809E-4,3.0543236E-4,-56.175003,-14.400001,5.3250003,,,,,,,,,,,,,,,,,,
SENSOR,1789661789727,41519945158567,0.15074782,0.24047868,9.862617,-0.0010690133,-7.635809E-4,3.0543236E-4,-56.175003,-14.400001,5.3250003,,,,,,,,,,,,,,,,,,
SENSOR,1789661789806,41520064496015,0.15074782,0.24047868,9.862617,1.5271618E-4,-1.5271618E-4,4.5814854E-4,-56.175003,-14.400001,5.3250003,,,,,,,,,,,,,,,,,,
SENSOR,1789661789815,41520064496015,0.15074782,0.24047868,9.862617,1.5271618E-4,-1.5271618E-4,4.5814854E-4,-55.65,-14.700001,5.175,,,,,,,,,,,,,,,,,,
SENSOR,1789661789832,41520049339400,0.15254244,0.23838496,9.862916,1.5271618E-4,-1.5271618E-4,4.5814854E-4,-55.65,-14.700001,5.175,,,,,,,,,,,,,,,,,,
GNSS,1789661789903,,true,11.05530434,76.92706674,377.21435546875,3.7900925,0.0,,95,40,,,,,,,,,,,,,
SENSOR,1789661789915,41520164496015,0.15254244,0.23838496,9.862916,-9.162971E-4,-7.635809E-4,4.5814854E-4,-55.65,-14.700001,5.175,,,,,,,,,,,,,,,,,,
GNSS,1789661790000,,true,11.05530588,76.92707318,377.614990234375,3.7900925,0.0,,95,40,,,,,,,,,,,,,
SENSOR,1789661789919,41520164496015,0.15254244,0.23838496,9.862916,-9.162971E-4,-7.635809E-4,4.5814854E-4,-55.425003,-14.85,3.525,,,,,,,,,,,,,,,,,,
SENSOR,1789661789935,41520153520233,0.15014961,0.23928227,9.862916,-9.162971E-4,-7.635809E-4,4.5814854E-4,-55.425003,-14.85,3.525,,,,,,,,,,,,,,,,,,
SENSOR,1789661790006,41520264496015,0.15014961,0.23928227,9.862916,1.5271618E-4,-1.5271618E-4,-7.635809E-4,-55.425003,-14.85,3.525,,,,,,,,,,,,,,,,,,
SENSOR,1789661790015,41520264496015,0.15014961,0.23928227,9.862916,1.5271618E-4,-1.5271618E-4,-7.635809E-4,-56.250004,-14.85,5.25,,,,,,,,,,,,,,,,,,
SENSOR,1789661790041,41520257701015,0.15044872,0.24137598,9.864112,1.5271618E-4,-1.5271618E-4,-7.635809E-4,-56.250004,-14.85,5.25,,,,,,,,,,,,,,,,,,
SENSOR,1789661790109,41520364496015,0.15044872,0.24137598,9.864112,1.5271618E-4,-7.635809E-4,4.5814854E-4,-56.250004,-14.85,5.25,,,,,,,,,,,,,,,,,,
SENSOR,1789661790118,41520364496015,0.15044872,0.24137598,9.864112,1.5271618E-4,-7.635809E-4,4.5814854E-4,-55.800003,-15.075001,4.3500004,,,,,,,,,,,,,,,,,,
SENSOR,1789661790144,41520361881796,0.15074782,0.23778675,9.861719,1.5271618E-4,-7.635809E-4,4.5814854E-4,-55.800003,-15.075001,4.3500004,,,,,,,,,,,,,,,,,,
SENSOR,1789661790205,41520464496015,0.15074782,0.23778675,9.861719,1.5271618E-4,-7.635809E-4,4.5814854E-4,-55.800003,-15.075001,4.3500004,,,,,,,,,,,,,,,,,,
SENSOR,1789661790215,41520464496015,0.15074782,0.23778675,9.861719,1.5271618E-4,-7.635809E-4,4.5814854E-4,-56.100002,-14.625001,4.65,,,,,,,,,,,,,,,,,,
SENSOR,1789661790251,41520466062629,0.15104693,0.23988047,9.862318,1.5271618E-4,-7.635809E-4,4.5814854E-4,-56.100002,-14.625001,4.65,,,,,,,,,,,,,,,,,,
SENSOR,1789661790310,41520564496015,0.15104693,0.23988047,9.862318,1.5271618E-4,-6.108647E-4,4.5814854E-4,-56.100002,-14.625001,4.65,,,,,,,,,,,,,,,,,,
SENSOR,1789661790318,41520564496015,0.15104693,0.23988047,9.862318,1.5271618E-4,-6.108647E-4,4.5814854E-4,-56.175003,-14.925,5.775,,,,,,,,,,,,,,,,,,
SENSOR,1789661790352,41520570243410,0.15134603,0.23958136,9.860822,1.5271618E-4,-6.108647E-4,4.5814854E-4,-56.175003,-14.925,5.775,,,,,,,,,,,,,,,,,,
SENSOR,1789661790404,41520664496015,0.15134603,0.23958136,9.860822,-4.5814854E-4,0.0,-3.0543236E-4,-56.175003,-14.925,5.775,,,,,,,,,,,,,,,,,,
SENSOR,1789661790414,41520664496015,0.15134603,0.23958136,9.860822,-4.5814854E-4,0.0,-3.0543236E-4,-56.100002,-14.55,4.3500004,,,,,,,,,,,,,,,,,,
SENSOR,1789661790457,41520674424140,0.14955142,0.24017957,9.864411,-4.5814854E-4,0.0,-3.0543236E-4,-56.100002,-14.55,4.3500004,,,,,,,,,,,,,,,,,,
SENSOR,1789661790508,41520764496015,0.14955142,0.24017957,9.864411,-9.162971E-4,-4.5814854E-4,3.0543236E-4,-56.100002,-14.55,4.3500004,,,,,,,,,,,,,,,,,,
CELLULAR,1789661790510,,,,,,,,,,,,,,true,NR,4298047490,405,869,,75,403,634080,-108,NR_SS_RSRP,3,
SENSOR,1789661790533,41520764496015,0.14955142,0.24017957,9.864411,-9.162971E-4,-4.5814854E-4,3.0543236E-4,-55.800003,-14.775001,3.6000001,,,,,,,,,,,,,,,,,,
SENSOR,1789661790561,41520778604921,0.15074782,0.23988047,9.862617,-9.162971E-4,-4.5814854E-4,3.0543236E-4,-55.800003,-14.775001,3.6000001,,,,,,,,,,,,,,,,,,
SENSOR,1789661790604,41520864496015,0.15074782,0.23988047,9.862617,0.0013744456,0.0035124721,-7.635809E-4,-55.800003,-14.775001,3.6000001,,,,,,,,,,,,,,,,,,
SENSOR,1789661790614,41520864496015,0.15074782,0.23988047,9.862617,0.0013744456,0.0035124721,-7.635809E-4,-56.325,-15.075001,5.4750004,,,,,,,,,,,,,,,,,,
SENSOR,1789661790669,41520882785702,0.1480559,0.24137598,9.861719,0.0013744456,0.0035124721,-7.635809E-4,-56.325,-15.075001,5.4750004,,,,,,,,,,,,,,,,,,
SENSOR,1789661790708,41520964496015,0.1480559,0.24137598,9.861719,-7.635809E-4,-7.635809E-4,4.5814854E-4,-56.325,-15.075001,5.4750004,,,,,,,,,,,,,,,,,,
SENSOR,1789661790717,41520964496015,0.1480559,0.24137598,9.861719,-7.635809E-4,-7.635809E-4,4.5814854E-4,-55.725002,-15.075001,4.05,,,,,,,,,,,,,,,,,,
SENSOR,1789661790768,41520986966431,0.15074782,0.24077778,9.8632145,-7.635809E-4,-7.635809E-4,4.5814854E-4,-55.725002,-15.075001,4.05,,,,,,,,,,,,,,,,,,
SENSOR,1789661790803,41521064496015,0.15074782,0.24077778,9.8632145,1.5271618E-4,4.5814854E-4,-4.5814854E-4,-55.725002,-15.075001,4.05,,,,,,,,,,,,,,,,,,
SENSOR,1789661790812,41521064496015,0.15074782,0.24077778,9.8632145,1.5271618E-4,4.5814854E-4,-4.5814854E-4,-53.7,-14.400001,-0.15,,,,,,,,,,,,,,,,,,
SENSOR,1789661790873,41521091147160,0.14955142,0.23958136,9.864711,1.5271618E-4,4.5814854E-4,-4.5814854E-4,-53.7,-14.400001,-0.15,,,,,,,,,,,,,,,,,,
GNSS,1789661790897,,true,11.05530588,76.92707318,377.614990234375,3.7900925,0.0,,95,39,,,,,,,,,,,,,
GNSS,1789661791000,,true,11.05530589,76.92707331,377.73150634765625,3.7900925,0.0,,95,39,,,,,,,,,,,,,
SENSOR,1789661790907,41521164496015,0.14955142,0.23958136,9.864711,-0.0010690133,-7.635809E-4,-6.108647E-4,-53.7,-14.400001,-0.15,,,,,,,,,,,,,,,,,,
SENSOR,1789661790916,41521164496015,0.14955142,0.23958136,9.864711,-0.0010690133,-7.635809E-4,-6.108647E-4,-53.250004,-14.55,-1.5,,,,,,,,,,,,,,,,,,
SENSOR,1789661790977,41521195327890,0.148355,0.24107689,9.862318,-0.0010690133,-7.635809E-4,-6.108647E-4,-53.250004,-14.55,-1.5,,,,,,,,,,,,,,,,,,
SENSOR,1789661791003,41521264496015,0.148355,0.24107689,9.862318,1.5271618E-4,-7.635809E-4,-7.635809E-4,-53.250004,-14.55,-1.5,,,,,,,,,,,,,,,,,,
SENSOR,1789661791012,41521264496015,0.148355,0.24107689,9.862318,1.5271618E-4,-7.635809E-4,-7.635809E-4,-52.875004,-14.475,-1.8000001,,,,,,,,,,,,,,,,,,
SENSOR,1789661791081,41521299508619,0.15074782,0.23898315,9.864711,1.5271618E-4,-7.635809E-4,-7.635809E-4,-52.875004,-14.475,-1.8000001,,,,,,,,,,,,,,,,,,
SENSOR,1789661791107,41521364496015,0.15074782,0.23898315,9.864711,4.5814854E-4,0.0,1.5271618E-4,-52.875004,-14.475,-1.8000001,,,,,,,,,,,,,,,,,,
SENSOR,1789661791116,41521364496015,0.15074782,0.23898315,9.864711,4.5814854E-4,0.0,1.5271618E-4,-52.425003,-14.625001,-1.575,,,,,,,,,,,,,,,,,,
GNSS,1789661791105,,true,11.0554046,76.9271183,374.70001220703125,100.0,,,95,39,,,,,,,,,,,,,
SENSOR,1789661791186,41521403689296,0.15343975,0.23748764,9.864411,4.5814854E-4,0.0,1.5271618E-4,-52.425003,-14.625001,-1.575,,,,,,,,,,,,,,,,,,
SENSOR,1789661791202,41521464496015,0.15343975,0.23748764,9.864411,-0.0010690133,-0.0019853103,4.5814854E-4,-52.425003,-14.625001,-1.575,,,,,,,,,,,,,,,,,,
SENSOR,1789661791212,41521464496015,0.15343975,0.23748764,9.864411,-0.0010690133,-0.0019853103,4.5814854E-4,-52.725002,-14.325001,-1.35,,,,,,,,,,,,,,,,,,
SENSOR,1789661791289,41521507870025,0.14955142,0.23988047,9.864711,-0.0010690133,-0.0019853103,4.5814854E-4,-52.725002,-14.325001,-1.35,,,,,,,,,,,,,,,,,,
SENSOR,1789661791306,41521564496015,0.14955142,0.23988047,9.864711,-0.0022907427,-0.005650499,1.5271618E-4,-52.725002,-14.325001,-1.35,,,,,,,,,,,,,,,,,,
SENSOR,1789661791316,41521564496015,0.14955142,0.23988047,9.864711,-0.0022907427,-0.005650499,1.5271618E-4,-54.075,-14.85,1.0500001,,,,,,,,,,,,,,,,,,
SENSOR,1789661791394,41521612050702,0.15403795,0.23659034,9.860523,-0.0022907427,-0.005650499,1.5271618E-4,-54.075,-14.85,1.0500001,,,,,,,,,,,,,,,,,,
SENSOR,1789661791402,41521664496015,0.15403795,0.23659034,9.860523,0.00519235,0.013133591,-4.5814854E-4,-54.075,-14.85,1.0500001,,,,,,,,,,,,,,,,,,
SENSOR,1789661791411,41521664496015,0.15403795,0.23659034,9.860523,0.00519235,0.013133591,-4.5814854E-4,-54.300003,-14.475,1.725,,,,,,,,,,,,,,,,,,
SENSOR,1789661791498,41521716231379,0.14955142,0.23928227,9.865309,0.00519235,0.013133591,-4.5814854E-4,-54.300003,-14.475,1.725,,,,,,,,,,,,,,,,,,
SENSOR,1789661791507,41521764496015,0.14955142,0.23928227,9.865309,0.0,0.0010690133,-4.5814854E-4,-54.300003,-14.475,1.725,,,,,,,,,,,,,,,,,,
SENSOR,1789661791515,41521764496015,0.14955142,0.23928227,9.865309,0.0,0.0010690133,-4.5814854E-4,-53.925003,-14.925,0.675,,,,,,,,,,,,,,,,,,
CELLULAR,1789661791534,,,,,,,,,,,,,,true,NR,4298047490,405,869,,75,403,634080,-108,NR_SS_RSRP,3,
SENSOR,1789661791602,41521864496015,0.14955142,0.23928227,9.865309,-7.635809E-4,-0.002596175,-7.635809E-4,-53.925003,-14.925,0.675,,,,,,,,,,,,,,,,,,
SENSOR,1789661791603,41521820412056,0.14925231,0.24107689,9.861421,-7.635809E-4,-0.002596175,-7.635809E-4,-53.925003,-14.925,0.675,,,,,,,,,,,,,,,,,,
SENSOR,1789661791610,41521864496015,0.14925231,0.24107689,9.861421,-7.635809E-4,-0.002596175,-7.635809E-4,-53.625004,-14.1,0.15,,,,,,,,,,,,,,,,,,
SENSOR,1789661791706,41521924592733,0.15194423,0.23778675,9.861421,-7.635809E-4,-0.002596175,-7.635809E-4,-53.625004,-14.1,0.15,,,,,,,,,,,,,,,,,,
SENSOR,1789661791707,41521964496015,0.15194423,0.23778675,9.861421,6.108647E-4,0.001679878,-7.635809E-4,-53.625004,-14.1,0.15,,,,,,,,,,,,,,,,,,
SENSOR,1789661791715,41521964496015,0.15194423,0.23778675,9.861421,6.108647E-4,0.001679878,-7.635809E-4,-54.750004,-14.400001,1.8750001,,,,,,,,,,,,,,,,,,
SENSOR,1789661791802,41522064496015,0.15194423,0.23778675,9.861421,1.5271618E-4,4.5814854E-4,4.5814854E-4,-54.750004,-14.400001,1.8750001,,,,,,,,,,,,,,,,,,
SENSOR,1789661791810,41522028773358,0.1468595,0.23958136,9.863514,1.5271618E-4,4.5814854E-4,4.5814854E-4,-54.750004,-14.400001,1.8750001,,,,,,,,,,,,,,,,,,
SENSOR,1789661791811,41522064496015,0.1468595,0.23958136,9.863514,1.5271618E-4,4.5814854E-4,4.5814854E-4,-55.2,-15.075001,3.075,,,,,,,,,,,,,,,,,,
GNSS,1789661791899,,true,11.0554046,76.9271183,374.70001220703125,100.0,,,93,37,,,,,,,,,,,,,
SENSOR,1789661791908,41522164496015,0.1468595,0.23958136,9.863514,1.5271618E-4,-7.635809E-4,-0.0,-55.2,-15.075001,3.075,,,,,,,,,,,,,,,,,,
GNSS,1789661792000,,true,11.05530724,76.92707818,378.13580322265625,3.7900925,0.0,,93,37,,,,,,,,,,,,,
SENSOR,1789661791915,41522132954035,0.14985052,0.24197419,9.860523,1.5271618E-4,-7.635809E-4,-0.0,-55.2,-15.075001,3.075,,,,,,,,,,,,,,,,,,
SENSOR,1789661791916,41522164496015,0.14985052,0.24197419,9.860523,1.5271618E-4,-7.635809E-4,-0.0,-55.050003,-15.000001,2.25,,,,,,,,,,,,,,,,,,
SENSOR,1789661792002,41522264496015,0.14985052,0.24197419,9.860523,1.5271618E-4,4.5814854E-4,4.5814854E-4,-55.050003,-15.000001,2.25,,,,,,,,,,,,,,,,,,
SENSOR,1789661792019,41522237134660,0.1486541,0.23868406,9.861719,1.5271618E-4,4.5814854E-4,4.5814854E-4,-55.050003,-15.000001,2.25,,,,,,,,,,,,,,,,,,
SENSOR,1789661792020,41522264496015,0.1486541,0.23868406,9.861719,1.5271618E-4,4.5814854E-4,4.5814854E-4,-54.750004,-14.925,2.325,,,,,,,,,,,,,,,,,,
SENSOR,1789661792106,41522364496015,0.1486541,0.23868406,9.861719,1.5271618E-4,0.001679878,-7.635809E-4,-54.750004,-14.925,2.325,,,,,,,,,,,,,,,,,,
SENSOR,1789661792115,41522364496015,0.1486541,0.23868406,9.861719,1.5271618E-4,0.001679878,-7.635809E-4,-54.825,-14.400001,2.8500001,,,,,,,,,,,,,,,,,,
SENSOR,1789661792123,41522341315285,0.15134603,0.24137598,9.864711,1.5271618E-4,0.001679878,-7.635809E-4,-54.825,-14.400001,2.8500001,,,,,,,,,,,,,,,,,,
SENSOR,1789661792202,41522464496015,0.15134603,0.24137598,9.864711,1.5271618E-4,-9.162971E-4,4.5814854E-4,-54.825,-14.400001,2.8500001,,,,,,,,,,,,,,,,,,
SENSOR,1789661792219,41522464496015,0.15134603,0.24137598,9.864711,1.5271618E-4,-9.162971E-4,4.5814854E-4,-54.825,-14.925,2.1750002,,,,,,,,,,,,,,,,,,
SENSOR,1789661792228,41522445495910,0.14985052,0.23838496,9.8632145,1.5271618E-4,-9.162971E-4,4.5814854E-4,-54.825,-14.925,2.1750002,,,,,,,,,,,,,,,,,,
SENSOR,1789661792306,41522564496015,0.14985052,0.23838496,9.8632145,0.0018325942,0.0036651883,4.5814854E-4,-54.825,-14.925,2.1750002,,,,,,,,,,,,,,,,,,
SENSOR,1789661792315,41522564496015,0.14985052,0.23838496,9.8632145,0.0018325942,0.0036651883,4.5814854E-4,-55.125004,-14.400001,3.3000002,,,,,,,,,,,,,,,,,,
SENSOR,1789661792333,41522549676535,0.15014961,0.23958136,9.8632145,0.0018325942,0.0036651883,4.5814854E-4,-55.125004,-14.400001,3.3000002,,,,,,,,,,,,,,,,,,
SENSOR,1789661792401,41522664496015,0.15014961,0.23958136,9.8632145,0.0012217294,0.002596175,4.5814854E-4,-55.125004,-14.400001,3.3000002,,,,,,,,,,,,,,,,,,
SENSOR,1789661792419,41522664496015,0.15014961,0.23958136,9.8632145,0.0012217294,0.002596175,4.5814854E-4,-55.575,-14.925,3.15,,,,,,,,,,,,,,,,,,
SENSOR,1789661792436,41522653857160,0.14955142,0.24017957,9.861719,0.0012217294,0.002596175,4.5814854E-4,-55.575,-14.925,3.15,,,,,,,,,,,,,,,,,,
SENSOR,1789661792505,41522764496015,0.14955142,0.24017957,9.861719,-0.0027488912,-0.0064140796,-1.5271618E-4,-55.575,-14.925,3.15,,,,,,,,,,,,,,,,,,
SENSOR,1789661792514,41522764496015,0.14955142,0.24017957,9.861719,-0.0027488912,-0.0064140796,-1.5271618E-4,-54.600002,-14.700001,1.8750001,,,,,,,,,,,,,,,,,,
SENSOR,1789661792539,41522758037733,0.1471586,0.24047868,9.860523,-0.0027488912,-0.0064140796,-1.5271618E-4,-54.600002,-14.700001,1.8750001,,,,,,,,,,,,,,,,,,
CELLULAR,1789661792542,,,,,,,,,,,,,,true,NR,4298047490,405,869,,75,403,634080,-108,NR_SS_RSRP,3,
SENSOR,1789661792600,41522864496015,0.1471586,0.24047868,9.860523,0.008552106,0.020922117,-7.635809E-4,-54.600002,-14.700001,1.8750001,,,,,,,,,,,,,,,,,,
SENSOR,1789661792618,41522864496015,0.1471586,0.24047868,9.860523,0.008552106,0.020922117,-7.635809E-4,-54.750004,-14.325001,1.6500001,,,,,,,,,,,,,,,,,,
SENSOR,1789661792644,41522862218358,0.15493527,0.23659034,9.859925,0.008552106,0.020922117,-7.635809E-4,-54.750004,-14.325001,1.6500001,,,,,,,,,,,,,,,,,,
SENSOR,1789661792704,41522964496015,0.15493527,0.23659034,9.859925,-0.009621119,-0.022143846,4.5814854E-4,-54.750004,-14.325001,1.6500001,,,,,,,,,,,,,,,,,,
SENSOR,1789661792715,41522964496015,0.15493527,0.23659034,9.859925,-0.009621119,-0.022143846,4.5814854E-4,-54.45,-15.000001,1.8000001,,,,,,,,,,,,,,,,,,
SENSOR,1789661792749,41522966398983,0.1594218,0.23479572,9.859028,-0.009621119,-0.022143846,4.5814854E-4,-54.45,-15.000001,1.8000001,,,,,,,,,,,,,,,,,,
SENSOR,1789661792810,41523064496015,0.1594218,0.23479572,9.859028,0.0012217294,0.0013744456,-7.635809E-4,-54.45,-15.000001,1.8000001,,,,,,,,,,,,,,,,,,
SENSOR,1789661792817,41523064496015,0.1594218,0.23479572,9.859028,0.0012217294,0.0013744456,-7.635809E-4,-55.725002,-14.925,3.15,,,,,,,,,,,,,,,,,,
SENSOR,1789661792853,41523070579608,0.15493527,0.23718855,9.859925,0.0012217294,0.0013744456,-7.635809E-4,-55.725002,-14.925,3.15,,,,,,,,,,,,,,,,,,
GNSS,1789661792901,,true,11.05530724,76.92707818,378.13580322265625,3.7900925,0.0,,81,37,,,,,,,,,,,,,
SENSOR,1789661792913,41523164496015,0.15493527,0.23718855,9.859925,0.005955931,0.013897172,4.5814854E-4,-55.725002,-14.925,3.15,,,,,,,,,,,,,,,,,,
SENSOR,1789661792913,41523164496015,0.15493527,0.23718855,9.859925,0.005955931,0.013897172,4.5814854E-4,-54.375004,-14.400001,1.0500001,,,,,,,,,,,,,,,,,,
GNSS,1789661793000,,true,11.05530607,76.92707648,377.9300537109375,3.7900925,0.0,,81,37,,,,,,,,,,,,,
SENSOR,1789661792957,41523174760181,0.1471586,0.24227329,9.860523,0.005955931,0.013897172,4.5814854E-4,-54.375004,-14.400001,1.0500001,,,,,,,,,,,,,,,,,,
SENSOR,1789661793009,41523264496015,0.1471586,0.24227329,9.860523,-0.0010690133,-0.0030543236,3.0543236E-4,-54.375004,-14.400001,1.0500001,,,,,,,,,,,,,,,,,,
SENSOR,1789661793019,41523264496015,0.1471586,0.24227329,9.860523,-0.0010690133,-0.0030543236,3.0543236E-4,-55.95,-15.075001,4.65,,,,,,,,,,,,,,,,,,
SENSOR,1789661793062,41523278940806,0.14985052,0.23898315,9.858429,-0.0010690133,-0.0030543236,3.0543236E-4,-55.95,-15.075001,4.65,,,,,,,,,,,,,,,,,,
SENSOR,1789661793105,41523364496015,0.14985052,0.23898315,9.858429,-3.0543236E-4,-7.635809E-4,-7.635809E-4,-55.95,-15.075001,4.65,,,,,,,,,,,,,,,,,,
SENSOR,1789661793114,41523364496015,0.14985052,0.23898315,9.858429,-3.0543236E-4,-7.635809E-4,-7.635809E-4,-55.875004,-14.700001,4.2000003,,,,,,,,,,,,,,,,,,
SENSOR,1789661793165,41523383121431,0.14985052,0.23778675,9.861121,-3.0543236E-4,-7.635809E-4,-7.635809E-4,-55.875004,-14.700001,4.2000003,,,,,,,,,,,,,,,,,,
SENSOR,1789661793209,41523464496015,0.14985052,0.23778675,9.861121,1.5271618E-4,4.5814854E-4,-7.635809E-4,-55.875004,-14.700001,4.2000003,,,,,,,,,,,,,,,,,,
SENSOR,1789661793218,41523464496015,0.14985052,0.23778675,9.861121,1.5271618E-4,4.5814854E-4,-7.635809E-4,-56.325,-14.475,4.9500003,,,,,,,,,,,,,,,,,,
SENSOR,1789661793269,41523487302056,0.14895321,0.23808585,9.862019,1.5271618E-4,4.5814854E-4,-7.635809E-4,-56.325,-14.475,4.9500003,,,,,,,,,,,,,,,,,,
SENSOR,1789661793304,41523564496015,0.14895321,0.23808585,9.862019,-4.5814854E-4,0.0,-7.635809E-4,-56.325,-14.475,4.9500003,,,,,,,,,,,,,,,,,,
SENSOR,1789661793313,41523564496015,0.14895321,0.23808585,9.862019,-4.5814854E-4,0.0,-7.635809E-4,-55.800003,-14.55,3.825,,,,,,,,,,,,,,,,,,
SENSOR,1789661793375,41523591482681,0.1471586,0.23898315,9.860523,-4.5814854E-4,0.0,-7.635809E-4,-55.800003,-14.55,3.825,,,,,,,,,,,,,,,,,,
SENSOR,1789661793408,41523664496015,0.1471586,0.23898315,9.860523,1.5271618E-4,4.5814854E-4,-6.108647E-4,-55.800003,-14.55,3.825,,,,,,,,,,,,,,,,,,
SENSOR,1789661793418,41523664496015,0.1471586,0.23898315,9.860523,1.5271618E-4,4.5814854E-4,-6.108647E-4,-55.875004,-14.85,3.6000001,,,,,,,,,,,,,,,,,,
SENSOR,1789661793479,41523695663306,0.15074782,0.23988047,9.860523,1.5271618E-4,4.5814854E-4,-6.108647E-4,-55.875004,-14.85,3.6000001,,,,,,,,,,,,,,,,,,
SENSOR,1789661793504,41523764496015,0.15074782,0.23988047,9.860523,1.5271618E-4,-3.0543236E-4,-7.635809E-4,-55.875004,-14.85,3.6000001,,,,,,,,,,,,,,,,,,
SENSOR,1789661793512,41523764496015,0.15074782,0.23988047,9.860523,1.5271618E-4,-3.0543236E-4,-7.635809E-4,-55.65,-14.85,3.825,,,,,,,,,,,,,,,,,,
CELLULAR,1789661793552,,,,,,,,,,,,,,true,NR,4298047490,405,869,,75,403,634080,-108,NR_SS_RSRP,3,
SENSOR,1789661793582,41523799843931,0.15104693,0.23838496,9.858728,1.5271618E-4,-3.0543236E-4,-7.635809E-4,-55.65,-14.85,3.825,,,,,,,,,,,,,,,,,,
SENSOR,1789661793609,41523864496015,0.15104693,0.23838496,9.858728,0.0,-7.635809E-4,4.5814854E-4,-55.65,-14.85,3.825,,,,,,,,,,,,,,,,,,
SENSOR,1789661793617,41523864496015,0.15104693,0.23838496,9.858728,0.0,-7.635809E-4,4.5814854E-4,-55.875004,-14.775001,3.825,,,,,,,,,,,,,,,,,,
SENSOR,1789661793686,41523904024556,0.14985052,0.23958136,9.861121,0.0,-7.635809E-4,4.5814854E-4,-55.875004,-14.775001,3.825,,,,,,,,,,,,,,,,,,
SENSOR,1789661793703,41523964496015,0.14985052,0.23958136,9.861121,1.5271618E-4,0.001679878,4.5814854E-4,-55.875004,-14.775001,3.825,,,,,,,,,,,,,,,,,,
SENSOR,1789661793712,41523964496015,0.14985052,0.23958136,9.861121,1.5271618E-4,0.001679878,4.5814854E-4,-56.025,-14.700001,5.025,,,,,,,,,,,,,,,,,,
SENSOR,1789661793791,41524008205181,0.14745769,0.23958136,9.859326,1.5271618E-4,0.001679878,4.5814854E-4,-56.025,-14.700001,5.025,,,,,,,,,,,,,,,,,,
SENSOR,1789661793810,41524064496015,0.14745769,0.23958136,9.859326,1.5271618E-4,-4.5814854E-4,-7.635809E-4,-56.025,-14.700001,5.025,,,,,,,,,,,,,,,,,,
SENSOR,1789661793817,41524064496015,0.14745769,0.23958136,9.859326,1.5271618E-4,-4.5814854E-4,-7.635809E-4,-55.050003,-14.475,4.3500004,,,,,,,,,,,,,,,,,,
SENSOR,1789661793895,41524112385858,0.14955142,0.23868406,9.859626,1.5271618E-4,-4.5814854E-4,-7.635809E-4,-55.050003,-14.475,4.3500004,,,,,,,,,,,,,,,,,,
GNSS,1789661793904,,true,11.05530607,76.92707648,377.9300537109375,3.7900925,0.0,,90,37,,,,,,,,,,,,,
SENSOR,1789661793915,41524164496015,0.14955142,0.23868406,9.859626,1.5271618E-4,4.5814854E-4,-4.5814854E-4,-55.050003,-14.475,4.3500004,,,,,,,,,,,,,,,,,,
SENSOR,1789661793915,41524164496015,0.14955142,0.23868406,9.859626,1.5271618E-4,4.5814854E-4,-4.5814854E-4,-55.875004,-14.625001,4.7250004,,,,,,,,,,,,,,,,,,
GNSS,1789661794000,,true,11.05530547,76.92707603,378.111328125,3.7900925,0.0,,90,37,,,,,,,,,,,,,
SENSOR,1789661793999,41524216566483,0.15074782,0.23928227,9.85813,1.5271618E-4,4.5814854E-4,-4.5814854E-4,-55.875004,-14.625001,4.7250004,,,,,,,,,,,,,,,,,,
SENSOR,1789661794008,41524264496015,0.15074782,0.23928227,9.85813,1.5271618E-4,3.0543236E-4,1.5271618E-4,-55.875004,-14.625001,4.7250004,,,,,,,,,,,,,,,,,,
SENSOR,1789661794017,41524264496015,0.15074782,0.23928227,9.85813,1.5271618E-4,3.0543236E-4,1.5271618E-4,-55.875004,-14.925,5.625,,,,,,,,,,,,,,,,,,
SENSOR,1789661794104,41524364496015,0.15074782,0.23928227,9.85813,1.5271618E-4,4.5814854E-4,1.5271618E-4,-55.875004,-14.925,5.625,,,,,,,,,,,,,,,,,,
SENSOR,1789661794104,41524320747160,0.15074782,0.23928227,9.860822,1.5271618E-4,4.5814854E-4,1.5271618E-4,-55.875004,-14.925,5.625,,,,,,,,,,,,,,,,,,
SENSOR,1789661794113,41524364496015,0.15074782,0.23928227,9.860822,1.5271618E-4,4.5814854E-4,1.5271618E-4,-56.100002,-14.55,4.125,,,,,,,,,,,,,,,,,,
SENSOR,1789661794207,41524464496015,0.15074782,0.23928227,9.860822,1.5271618E-4,-7.635809E-4,0.0,-56.100002,-14.55,4.125,,,,,,,,,,,,,,,,,,
SENSOR,1789661794207,41524424927837,0.14955142,0.23838496,9.856036,1.5271618E-4,-7.635809E-4,0.0,-56.100002,-14.55,4.125,,,,,,,,,,,,,,,,,,
SENSOR,1789661794215,41524464496015,0.14955142,0.23838496,9.856036,1.5271618E-4,-7.635809E-4,0.0,-55.350002,-14.625001,3.9750001,,,,,,,,,,,,,,,,,,
SENSOR,1789661794304,41524564496015,0.14955142,0.23838496,9.856036,-0.0030543236,-0.00519235,4.5814854E-4,-55.350002,-14.625001,3.9750001,,,,,,,,,,,,,,,,,,
SENSOR,1789661794311,41524529108462,0.148355,0.23958136,9.861421,-0.0030543236,-0.00519235,4.5814854E-4,-55.350002,-14.625001,3.9750001,,,,,,,,,,,,,,,,,,
SENSOR,1789661794312,41524564496015,0.148355,0.23958136,9.861421,-0.0030543236,-0.00519235,4.5814854E-4,-56.325,-14.625001,4.7250004,,,,,,,,,,,,,,,,,,
SENSOR,1789661794410,41524664496015,0.148355,0.23958136,9.861421,-0.0087048225,-0.020463968,4.5814854E-4,-56.325,-14.625001,4.7250004,,,,,,,,,,,,,,,,,,
SENSOR,1789661794416,41524633289192,0.1591227,0.23629123,9.861121,-0.0087048225,-0.020463968,4.5814854E-4,-56.325,-14.625001,4.7250004,,,,,,,,,,,,,,,,,,
SENSOR,1789661794417,41524664496015,0.1591227,0.23629123,9.861121,-0.0087048225,-0.020463968,4.5814854E-4,-55.875004,-14.700001,3.9750001,,,,,,,,,,,,,,,,,,
SENSOR,1789661794503,41524764496015,0.1591227,0.23629123,9.861121,0.0019853103,0.0045814854,4.5814854E-4,-55.875004,-14.700001,3.9750001,,,,,,,,,,,,,,,,,,
SENSOR,1789661794511,41524764496015,0.1591227,0.23629123,9.861121,0.0019853103,0.0045814854,4.5814854E-4,-55.65,-14.625001,3.15,,,,,,,,,,,,,,,,,,
SENSOR,1789661794520,41524737469869,0.14985052,0.23868406,9.859925,0.0019853103,0.0045814854,4.5814854E-4,-55.65,-14.625001,3.15,,,,,,,,,,,,,,,,,,
CELLULAR,1789661794564,,,,,,,,,,,,,,true,NR,4298047490,405,869,,75,403,634080,-108,NR_SS_RSRP,3,
SENSOR,1789661794607,41524864496015,0.14985052,0.23868406,9.859925,-1.5271618E-4,-0.0013744456,4.5814854E-4,-55.65,-14.625001,3.15,,,,,,,,,,,,,,,,,,
SENSOR,1789661794617,41524864496015,0.14985052,0.23868406,9.859925,-1.5271618E-4,-0.0013744456,4.5814854E-4,-55.95,-15.000001,4.7250004,,,,,,,,,,,,,,,,,,
SENSOR,1789661794624,41524841650546,0.148355,0.23868406,9.859028,-1.5271618E-4,-0.0013744456,4.5814854E-4,-55.95,-15.000001,4.7250004,,,,,,,,,,,,,,,,,,
SENSOR,1789661794705,41524964496015,0.148355,0.23868406,9.859028,1.5271618E-4,3.0543236E-4,-6.108647E-4,-55.95,-15.000001,4.7250004,,,,,,,,,,,,,,,,,,
SENSOR,1789661794720,41524964496015,0.148355,0.23868406,9.859028,1.5271618E-4,3.0543236E-4,-6.108647E-4,-56.100002,-14.55,5.925,,,,,,,,,,,,,,,,,,
SENSOR,1789661794728,41524945831223,0.15104693,0.23718855,9.859326,1.5271618E-4,3.0543236E-4,-6.108647E-4,-56.100002,-14.55,5.925,,,,,,,,,,,,,,,,,,
SENSOR,1789661794808,41525064496015,0.15104693,0.23718855,9.859326,-0.0010690133,-0.0012217294,4.5814854E-4,-56.100002,-14.55,5.925,,,,,,,,,,,,,,,,,,
SENSOR,1789661794815,41525064496015,0.15104693,0.23718855,9.859326,-0.0010690133,-0.0012217294,4.5814854E-4,-56.325,-15.150001,5.7000003,,,,,,,,,,,,,,,,,,
SENSOR,1789661794833,41525050011952,0.15014961,0.23988047,9.861719,-0.0010690133,-0.0012217294,4.5814854E-4,-56.325,-15.150001,5.7000003,,,,,,,,,,,,,,,,,,
GNSS,1789661794900,,true,11.05530547,76.92707603,378.111328125,3.7900925,0.0,,94,37,,,,,,,,,,,,,
SENSOR,1789661794909,41525164496015,0.15014961,0.23988047,9.861719,-9.162971E-4,-0.0027488912,3.0543236E-4,-56.325,-15.150001,5.7000003,,,,,,,,,,,,,,,,,,
GNSS,1789661795000,,true,11.05530517,76.92707577,377.88330078125,3.7900925,0.0,,94,37,,,,,,,,,,,,,
SENSOR,1789661794920,41525164496015,0.15014961,0.23988047,9.861719,-9.162971E-4,-0.0027488912,3.0543236E-4,-55.425003,-14.475,3.825,,,,,,,,,,,,,,,,,,
SENSOR,1789661794937,41525154192629,0.14955142,0.23838496,9.858728,-9.162971E-4,-0.0027488912,3.0543236E-4,-55.425003,-14.475,3.825,,,,,,,,,,,,,,,,,,
SENSOR,1789661795007,41525264496015,0.14955142,0.23838496,9.858728,9.162971E-4,0.002596175,4.5814854E-4,-55.425003,-14.475,3.825,,,,,,,,,,,,,,,,,,
SENSOR,1789661795015,41525264496015,0.14955142,0.23838496,9.858728,9.162971E-4,0.002596175,4.5814854E-4,-56.025,-15.000001,3.9,,,,,,,,,,,,,,,,,,
SENSOR,1789661795040,41525258373358,0.15194423,0.24077778,9.859626,9.162971E-4,0.002596175,4.5814854E-4,-56.025,-15.000001,3.9,,,,,,,,,,,,,,,,,,
SENSOR,1789661795102,41525364496015,0.15194423,0.24077778,9.859626,1.5271618E-4,0.001679878,-7.635809E-4,-56.025,-15.000001,3.9,,,,,,,,,,,,,,,,,,
SENSOR,1789661795119,41525364496015,0.15194423,0.24077778,9.859626,1.5271618E-4,0.001679878,-7.635809E-4,-56.325,-14.775001,5.775,,,,,,,,,,,,,,,,,,
SENSOR,1789661795145,41525362554087,0.14955142,0.24047868,9.859626,1.5271618E-4,0.001679878,-7.635809E-4,-56.325,-14.775001,5.775,,,,,,,,,,,,,,,,,,
SENSOR,1789661795206,41525464496015,0.14955142,0.24047868,9.859626,1.5271618E-4,-1.5271618E-4,-7.635809E-4,-56.325,-14.775001,5.775,,,,,,,,,,,,,,,,,,
SENSOR,1789661795215,41525464496015,0.14955142,0.24047868,9.859626,1.5271618E-4,-1.5271618E-4,-7.635809E-4,-56.100002,-14.700001,3.3000002,,,,,,,,,,,,,,,,,,
SENSOR,1789661795249,41525466734765,0.15104693,0.23928227,9.860224,1.5271618E-4,-1.5271618E-4,-7.635809E-4,-56.100002,-14.700001,3.3000002,,,,,,,,,,,,,,,,,,
SENSOR,1789661795304,41525564496015,0.15104693,0.23928227,9.860224,1.5271618E-4,4.5814854E-4,4.5814854E-4,-56.100002,-14.700001,3.3000002,,,,,,,,,,,,,,,,,,
SENSOR,1789661795318,41525564496015,0.15104693,0.23928227,9.860224,1.5271618E-4,4.5814854E-4,4.5814854E-4,-55.425003,-15.3,3.825,,,,,,,,,,,,,,,,,,
SENSOR,1789661795354,41525570915494,0.14955142,0.24017957,9.859925,1.5271618E-4,4.5814854E-4,4.5814854E-4,-55.425003,-15.3,3.825,,,,,,,,,,,,,,,,,,
SENSOR,1789661795406,41525664496015,0.14955142,0.24017957,9.859925,-0.0010690133,4.5814854E-4,-1.5271618E-4,-55.425003,-15.3,3.825,,,,,,,,,,,,,,,,,,
SENSOR,1789661795414,41525664496015,0.14955142,0.24017957,9.859925,-0.0010690133,4.5814854E-4,-1.5271618E-4,-56.175003,-14.475,4.9500003,,,,,,,,,,,,,,,,,,
SENSOR,1789661795458,41525675096275,0.15074782,0.23928227,9.85813,-0.0010690133,4.5814854E-4,-1.5271618E-4,-56.175003,-14.475,4.9500003,,,,,,,,,,,,,,,,,,
SENSOR,1789661795509,41525764496015,0.15074782,0.23928227,9.85813,1.5271618E-4,4.5814854E-4,4.5814854E-4,-56.175003,-14.475,4.9500003,,,,,,,,,,,,,,,,,,
SENSOR,1789661795520,41525764496015,0.15074782,0.23928227,9.85813,1.5271618E-4,4.5814854E-4,4.5814854E-4,-56.4,-15.450001,5.3250003,,,,,,,,,,,,,,,,,,
SENSOR,1789661795562,41525779277004,0.15134603,0.23718855,9.862019,1.5271618E-4,4.5814854E-4,4.5814854E-4,-56.4,-15.450001,5.3250003,,,,,,,,,,,,,,,,,,
CELLULAR,1789661795592,,,,,,,,,,,,,,true,NR,4298047490,405,869,,75,403,634080,-108,NR_SS_RSRP,3,
SENSOR,1789661795615,41525864496015,0.15134603,0.23718855,9.862019,1.5271618E-4,-1.5271618E-4,-7.635809E-4,-56.4,-15.450001,5.3250003,,,,,,,,,,,,,,,,,,
SENSOR,1789661795615,41525864496015,0.15134603,0.23718855,9.862019,1.5271618E-4,-1.5271618E-4,-7.635809E-4,-56.550003,-15.000001,4.7250004,,,,,,,,,,,,,,,,,,
SENSOR,1789661795667,41525883457733,0.15014961,0.23898315,9.859925,1.5271618E-4,-1.5271618E-4,-7.635809E-4,-56.550003,-15.000001,4.7250004,,,,,,,,,,,,,,,,,,
SENSOR,1789661795709,41525964496015,0.15014961,0.23898315,9.859925,1.5271618E-4,-7.635809E-4,-7.635809E-4,-56.550003,-15.000001,4.7250004,,,,,,,,,,,,,,,,,,
SENSOR,1789661795718,41525964496015,0.15014961,0.23898315,9.859925,1.5271618E-4,-7.635809E-4,-7.635809E-4,-55.575,-14.700001,4.125,,,,,,,,,,,,,,,,,,
SENSOR,1789661795770,41525987638462,0.1486541,0.24137598,9.857532,1.5271618E-4,-7.635809E-4,-7.635809E-4,-55.575,-14.700001,4.125,,,,,,,,,,,,,,,,,,
SENSOR,1789661795804,41526064496015,0.1486541,0.24137598,9.857532,-0.0010690133,-7.635809E-4,-1.5271618E-4,-55.575,-14.700001,4.125,,,,,,,,,,,,,,,,,,
SENSOR,1789661795813,41526064496015,0.1486541,0.24137598,9.857532,-0.0010690133,-7.635809E-4,-1.5271618E-4,-55.725002,-14.625001,3.6000001,,,,,,,,,,,,,,,,,,
SENSOR,1789661795875,41526091819244,0.15014961,0.23718855,9.864112,-0.0010690133,-7.635809E-4,-1.5271618E-4,-55.725002,-14.625001,3.6000001,,,,,,,,,,,,,,,,,,
GNSS,1789661795901,,true,11.05530517,76.92707577,377.88330078125,3.7900925,0.0,,94,38,,,,,,,,,,,,,
SENSOR,1789661795911,41526164496015,0.15014961,0.23718855,9.864112,1.5271618E-4,-6.108647E-4,-7.635809E-4,-55.725002,-14.625001,3.6000001,,,,,,,,,,,,,,,,,,
GNSS,1789661796000,,true,11.05530453,76.927074,377.64410400390625,3.7900925,0.0,,94,38,,,,,,,,,,,,,
SENSOR,1789661795918,41526164496015,0.15014961,0.23718855,9.864112,1.5271618E-4,-6.108647E-4,-7.635809E-4,-54.750004,-14.925,2.4,,,,,,,,,,,,,,,,,,
SENSOR,1789661795979,41526195999973,0.15044872,0.23958136,9.861719,1.5271618E-4,-6.108647E-4,-7.635809E-4,-54.750004,-14.925,2.4,,,,,,,,,,,,,,,,,,
SENSOR,1789661796005,41526264496015,0.15044872,0.23958136,9.861719,-4.5814854E-4,-7.635809E-4,4.5814854E-4,-54.750004,-14.925,2.4,,,,,,,,,,,,,,,,,,
SENSOR,1789661796013,41526264496015,0.15044872,0.23958136,9.861719,-4.5814854E-4,-7.635809E-4,4.5814854E-4,-56.025,-14.625001,4.5,,,,,,,,,,,,,,,,,,
SENSOR,1789661796082,41526300180754,0.14895321,0.23958136,9.860523,-4.5814854E-4,-7.635809E-4,4.5814854E-4,-56.025,-14.625001,4.5,,,,,,,,,,,,,,,,,,
SENSOR,1789661796108,41526364496015,0.14895321,0.23958136,9.860523,1.5271618E-4,4.5814854E-4,4.5814854E-4,-56.025,-14.625001,4.5,,,,,,,,,,,,,,,,,,
SENSOR,1789661796118,41526364496015,0.14895321,0.23958136,9.860523,1.5271618E-4,4.5814854E-4,4.5814854E-4,-56.325,-15.150001,5.175,,,,,,,,,,,,,,,,,,
SENSOR,1789661796187,41526404361483,0.14955142,0.23958136,9.861121,1.5271618E-4,4.5814854E-4,4.5814854E-4,-56.325,-15.150001,5.175,,,,,,,,,,,,,,,,,,
SENSOR,1789661796204,41526464496015,0.14955142,0.23958136,9.861121,-0.0010690133,-7.635809E-4,4.5814854E-4,-56.325,-15.150001,5.175,,,,,,,,,,,,,,,,,,
SENSOR,1789661796214,41526464496015,0.14955142,0.23958136,9.861121,-0.0010690133,-7.635809E-4,4.5814854E-4,-56.250004,-15.000001,5.025,,,,,,,,,,,,,,,,,,
SENSOR,1789661796290,41526508542212,0.14985052,0.23928227,9.860523,-0.0010690133,-7.635809E-4,4.5814854E-4,-56.250004,-15.000001,5.025,,,,,,,,,,,,,,,,,,
SENSOR,1789661796309,41526564496015,0.14985052,0.23928227,9.860523,-0.002443459,-0.0047342014,4.5814854E-4,-56.250004,-15.000001,5.025,,,,,,,,,,,,,,,,,,
SENSOR,1789661796316,41526564496015,0.14985052,0.23928227,9.860523,-0.002443459,-0.0047342014,4.5814854E-4,-55.800003,-14.250001,4.125,,,,,,,,,,,,,,,,,,
