stream_type,timestamp_ms,sensor_nanos,accel_x,accel_y,accel_z,gyro_x,gyro_y,gyro_z,mag_x,mag_y,mag_z,has_fix,latitude,longitude,altitude,accuracy,speed,bearing,sats_view,sats_used,registered,cell_type,cell_id,mcc,mnc,lac,tac,pci,arfcn,signal_dbm,signal_metric,signal_level,operator
SENSOR,1789662427906,42158152373623,,,,-0.005803215,-0.011453713,0.0029016074,,,,,,,,,,,,,,,,,,,,,,,,,
SENSOR,1789662427916,42158164495811,,,,-0.0018325942,0.0015271618,0.0029016074,,,,,,,,,,,,,,,,,,,,,,,,,
CELLULAR,1789662427921,,,,,,,,,,,,,,,,,,,true,NR,4298047490,405,869,,75,403,634080,-107,NR_SS_RSRP,3,
SENSOR,1789662427938,42158174495810,,,,-0.0018325942,0.0015271618,0.0029016074,-58.95,2.4750001,5.625,,,,,,,,,,,,,,,,,,,,,,
GNSS,1789662427913,,,,,,,,,,,true,11.0554072,76.9271226,374.70001220703125,57.541,,,0,0,,,,,,,,,,,,,
SENSOR,1789662427957,42158175998726,0.1381855,0.21774685,9.860224,-0.0018325942,0.0015271618,0.0029016074,-58.95,2.4750001,5.625,,,,,,,,,,,,,,,,,,,,,,
SENSOR,1789662428009,42158264495810,0.1381855,0.21774685,9.860224,1.5271618E-4,0.0015271618,6.108647E-4,-58.95,2.4750001,5.625,,,,,,,,,,,,,,,,,,,,,,
SENSOR,1789662428027,42158274495810,0.1381855,0.21774685,9.860224,1.5271618E-4,0.0015271618,6.108647E-4,-60.675003,2.025,9.0,,,,,,,,,,,,,,,,,,,,,,
SENSOR,1789662428063,42158280186435,0.13399807,0.2434697,9.870094,1.5271618E-4,0.0015271618,6.108647E-4,-60.675003,2.025,9.0,,,,,,,,,,,,,,,,,,,,,,
SENSOR,1789662428107,42158364495810,0.13399807,0.2434697,9.870094,7.635809E-4,7.635809E-4,-0.0,-60.675003,2.025,9.0,,,,,,,,,,,,,,,,,,,,,,
SENSOR,1789662428124,42158374495810,0.13399807,0.2434697,9.870094,7.635809E-4,7.635809E-4,-0.0,-60.600002,2.325,8.925,,,,,,,,,,,,,,,,,,,,,,
SENSOR,1789662428169,42158384374091,0.1363909,0.22253251,9.863514,7.635809E-4,7.635809E-4,-0.0,-60.600002,2.325,8.925,,,,,,,,,,,,,,,,,,,,,,
SENSOR,1789662428203,42158464495810,0.1363909,0.22253251,9.863514,3.0543236E-4,-4.5814854E-4,-7.635809E-4,-60.600002,2.325,8.925,,,,,,,,,,,,,,,,,,,,,,
SENSOR,1789662428227,42158474495810,0.1363909,0.22253251,9.863514,3.0543236E-4,-4.5814854E-4,-7.635809E-4,-61.275,1.8750001,9.075001,,,,,,,,,,,,,,,,,,,,,,
SENSOR,1789662428271,42158488561747,0.13369897,0.23389842,9.868599,3.0543236E-4,-4.5814854E-4,-7.635809E-4,-61.275,1.8750001,9.075001,,,,,,,,,,,,,,,,,,,,,,
SENSOR,1789662428306,42158564495810,0.13369897,0.23389842,9.868599,3.0543236E-4,-4.5814854E-4,4.5814854E-4,-61.275,1.8750001,9.075001,,,,,,,,,,,,,,,,,,,,,,
SENSOR,1789662428324,42158574495810,0.13369897,0.23389842,9.868599,3.0543236E-4,-4.5814854E-4,4.5814854E-4,-60.525,2.1000001,9.150001,,,,,,,,,,,,,,,,,,,,,,
SENSOR,1789662428375,42158592749403,0.1372882,0.22582264,9.865009,3.0543236E-4,-4.5814854E-4,4.5814854E-4,-60.525,2.1000001,9.150001,,,,,,,,,,,,,,,,,,,,,,
SENSOR,1789662428401,42158664495810,0.1372882,0.22582264,9.865009,3.0543236E-4,-4.5814854E-4,4.5814854E-4,-60.525,2.1000001,9.150001,,,,,,,,,,,,,,,,,,,,,,
SENSOR,1789662428428,42158674495810,0.1372882,0.22582264,9.865009,3.0543236E-4,-4.5814854E-4,4.5814854E-4,-60.525,2.1000001,8.925,,,,,,,,,,,,,,,,,,,,,,
SENSOR,1789662428479,42158696937007,0.13339986,0.2324029,9.864711,3.0543236E-4,-4.5814854E-4,4.5814854E-4,-60.525,2.1000001,8.925,,,,,,,,,,,,,,,,,,,,,,
SENSOR,1789662428506,42158764495810,0.13339986,0.2324029,9.864711,-3.0543236E-4,1.5271618E-4,4.5814854E-4,-60.525,2.1000001,8.925,,,,,,,,,,,,,,,,,,,,,,
SENSOR,1789662428524,42158774495810,0.13339986,0.2324029,9.864711,-3.0543236E-4,1.5271618E-4,4.5814854E-4,-60.675003,2.025,8.700001,,,,,,,,,,,,,,,,,,,,,,
SENSOR,1789662428584,42158801124664,0.13459627,0.22941187,9.863514,-3.0543236E-4,1.5271618E-4,4.5814854E-4,-60.675003,2.025,8.700001,,,,,,,,,,,,,,,,,,,,,,
SENSOR,1789662428609,42158864495810,0.13459627,0.22941187,9.863514,-9.162971E-4,7.635809E-4,-7.635809E-4,-60.675003,2.025,8.700001,,,,,,,,,,,,,,,,,,,,,,
SENSOR,1789662428628,42158874495810,0.13459627,0.22941187,9.863514,-9.162971E-4,7.635809E-4,-7.635809E-4,-61.050003,2.325,7.9500003,,,,,,,,,,,,,,,,,,,,,,
SENSOR,1789662428688,42158905312268,0.13399807,0.23060828,9.865309,-9.162971E-4,7.635809E-4,-7.635809E-4,-61.050003,2.325,7.9500003,,,,,,,,,,,,,,,,,,,,,,
SENSOR,1789662428706,42158964495810,0.13399807,0.23060828,9.865309,-9.162971E-4,1.5271618E-4,-7.635809E-4,-61.050003,2.325,7.9500003,,,,,,,,,,,,,,,,,,,,,,
SENSOR,1789662428723,42158974495810,0.13399807,0.23060828,9.865309,-9.162971E-4,1.5271618E-4,-7.635809E-4,-60.300003,1.8750001,8.025001,,,,,,,,,,,,,,,,,,,,,,
SENSOR,1789662428793,42159009499872,0.1363909,0.22821546,9.864711,-9.162971E-4,1.5271618E-4,-7.635809E-4,-60.300003,1.8750001,8.025001,,,,,,,,,,,,,,,,,,,,,,
SENSOR,1789662428810,42159064495810,0.1363909,0.22821546,9.864711,1.5271618E-4,7.635809E-4,4.5814854E-4,-60.300003,1.8750001,8.025001,,,,,,,,,,,,,,,,,,,,,,
SENSOR,1789662428827,42159074495810,0.1363909,0.22821546,9.864711,1.5271618E-4,7.635809E-4,4.5814854E-4,-60.975002,1.8750001,9.225,,,,,,,,,,,,,,,,,,,,,,
SENSOR,1789662428895,42159113687476,0.1363909,0.23150559,9.864711,1.5271618E-4,7.635809E-4,4.5814854E-4,-60.975002,1.8750001,9.225,,,,,,,,,,,,,,,,,,,,,,
SENSOR,1789662428905,42159164495810,0.1363909,0.23150559,9.864711,-4.5814854E-4,-4.5814854E-4,4.5814854E-4,-60.975002,1.8750001,9.225,,,,,,,,,,,,,,,,,,,,,,
SENSOR,1789662428922,42159174495810,0.1363909,0.23150559,9.864711,-4.5814854E-4,-4.5814854E-4,4.5814854E-4,-61.125004,1.8750001,8.925,,,,,,,,,,,,,,,,,,,,,,
CELLULAR,1789662428938,,,,,,,,,,,,,,,,,,,true,NR,4298047490,405,869,,75,403,634080,-105,NR_SS_RSRP,4,
SENSOR,1789662429000,42159217875028,0.13549358,0.23060828,9.863514,-4.5814854E-4,-4.5814854E-4,4.5814854E-4,-61.125004,1.8750001,8.925,,,,,,,,,,,,,,,,,,,,,,
SENSOR,1789662429009,42159264495810,0.13549358,0.23060828,9.863514,3.0543236E-4,7.635809E-4,4.5814854E-4,-61.125004,1.8750001,8.925,,,,,,,,,,,,,,,,,,,,,,
SENSOR,1789662429026,42159274495810,0.13549358,0.23060828,9.863514,3.0543236E-4,7.635809E-4,4.5814854E-4,-60.075,1.95,7.275,,,,,,,,,,,,,,,,,,,,,,
SENSOR,1789662429104,42159322062632,0.13549358,0.23001008,9.864112,3.0543236E-4,7.635809E-4,4.5814854E-4,-60.075,1.95,7.275,,,,,,,,,,,,,,,,,,,,,,
SENSOR,1789662429104,42159364495810,0.13549358,0.23001008,9.864112,3.0543236E-4,0.0,-7.635809E-4,-60.075,1.95,7.275,,,,,,,,,,,,,,,,,,,,,,
SENSOR,1789662429122,42159374495810,0.13549358,0.23001008,9.864112,3.0543236E-4,0.0,-7.635809E-4,-60.225002,2.4,7.1250005,,,,,,,,,,,,,,,,,,,,,,
SENSOR,1789662429209,42159426250185,0.13489537,0.23120649,9.864711,3.0543236E-4,0.0,-7.635809E-4,-60.225002,2.4,7.1250005,,,,,,,,,,,,,,,,,,,,,,
SENSOR,1789662429209,42159464495810,0.13489537,0.23120649,9.864711,3.0543236E-4,6.108647E-4,-7.635809E-4,-60.225002,2.4,7.1250005,,,,,,,,,,,,,,,,,,,,,,
SENSOR,1789662429227,42159474495810,0.13489537,0.23120649,9.864711,3.0543236E-4,6.108647E-4,-7.635809E-4,-60.300003,1.95,8.025001,,,,,,,,,,,,,,,,,,,,,,
SENSOR,1789662429305,42159564495810,0.13489537,0.23120649,9.864711,-4.5814854E-4,-4.5814854E-4,4.5814854E-4,-60.300003,1.95,8.025001,,,,,,,,,,,,,,,,,,,,,,
SENSOR,1789662429312,42159530437737,0.13668999,0.22941187,9.864112,-4.5814854E-4,-4.5814854E-4,4.5814854E-4,-60.300003,1.95,8.025001,,,,,,,,,,,,,,,,,,,,,,
SENSOR,1789662429321,42159574495810,0.13668999,0.22941187,9.864112,-4.5814854E-4,-4.5814854E-4,4.5814854E-4,-60.075,2.325,7.05,,,,,,,,,,,,,,,,,,,,,,
SENSOR,1789662429407,42159664495810,0.13668999,0.22941187,9.864112,3.0543236E-4,-3.0543236E-4,-7.635809E-4,-60.075,2.325,7.05,,,,,,,,,,,,,,,,,,,,,,
SENSOR,1789662429417,42159634625237,0.13549358,0.22941187,9.864711,3.0543236E-4,-3.0543236E-4,-7.635809E-4,-60.075,2.325,7.05,,,,,,,,,,,,,,,,,,,,,,
SENSOR,1789662429425,42159674495810,0.13549358,0.22941187,9.864711,3.0543236E-4,-3.0543236E-4,-7.635809E-4,-60.075,2.4750001,7.5000005,,,,,,,,,,,,,,,,,,,,,,
SENSOR,1789662429505,42159764495810,0.13549358,0.22941187,9.864711,3.0543236E-4,-4.5814854E-4,4.5814854E-4,-60.075,2.4750001,7.5000005,,,,,,,,,,,,,,,,,,,,,,
SENSOR,1789662429522,42159738812789,0.13579269,0.22941187,9.864411,3.0543236E-4,-4.5814854E-4,4.5814854E-4,-60.075,2.4750001,7.5000005,,,,,,,,,,,,,,,,,,,,,,
SENSOR,1789662429522,42159774495810,0.13579269,0.22941187,9.864411,3.0543236E-4,-4.5814854E-4,4.5814854E-4,-60.525,2.4750001,8.325001,,,,,,,,,,,,,,,,,,,,,,
SENSOR,1789662429607,42159864495810,0.13579269,0.22941187,9.864411,-6.108647E-4,-1.5271618E-4,4.5814854E-4,-60.525,2.4750001,8.325001,,,,,,,,,,,,,,,,,,,,,,
SENSOR,1789662429625,42159843000289,0.13399807,0.2318047,9.867702,-6.108647E-4,-1.5271618E-4,4.5814854E-4,-60.525,2.4750001,8.325001,,,,,,,,,,,,,,,,,,,,,,
SENSOR,1789662429625,42159874495810,0.13399807,0.2318047,9.867702,-6.108647E-4,-1.5271618E-4,4.5814854E-4,-60.15,1.8750001,6.6000004,,,,,,,,,,,,,,,,,,,,,,
SENSOR,1789662429704,42159964495810,0.13399807,0.2318047,9.867702,-6.108647E-4,7.635809E-4,-3.0543236E-4,-60.15,1.8750001,6.6000004,,,,,,,,,,,,,,,,,,,,,,
SENSOR,1789662429730,42159947187789,0.13519448,0.22881366,9.865009,-6.108647E-4,7.635809E-4,-3.0543236E-4,-60.15,1.8750001,6.6000004,,,,,,,,,,,,,,,,,,,,,,
SENSOR,1789662429730,42159974495810,0.13519448,0.22881366,9.865009,-6.108647E-4,7.635809E-4,-3.0543236E-4,-60.300003,1.95,7.5750003,,,,,,,,,,,,,,,,,,,,,,
SENSOR,1789662429807,42160064495810,0.13519448,0.22881366,9.865009,3.0543236E-4,7.635809E-4,-7.635809E-4,-60.300003,1.95,7.5750003,,,,,,,,,,,,,,,,,,,,,,
SENSOR,1789662429825,42160074495810,0.13519448,0.22881366,9.865009,3.0543236E-4,7.635809E-4,-7.635809E-4,-60.300003,1.95,7.8,,,,,,,,,,,,,,,,,,,,,,
SENSOR,1789662429835,42160051375289,0.13310076,0.23060828,9.863813,3.0543236E-4,7.635809E-4,-7.635809E-4,-60.300003,1.95,7.8,,,,,,,,,,,,,,,,,,,,,,
GNSS,1789662429843,,,,,,,,,,,true,11.0554072,76.9271226,374.70001220703125,57.541,,,53,0,,,,,,,,,,,,,
SENSOR,1789662429903,42160164495810,0.13310076,0.23060828,9.863813,3.0543236E-4,-1.5271618E-4,-7.635809E-4,-60.300003,1.95,7.8,,,,,,,,,,,,,,,,,,,,,,
SENSOR,1789662429935,42160174495810,0.13310076,0.23060828,9.863813,3.0543236E-4,-1.5271618E-4,-7.635809E-4,-60.750004,2.1750002,9.3,,,,,,,,,,,,,,,,,,,,,,
SENSOR,1789662429938,42160155562789,0.13459627,0.23060828,9.863514,3.0543236E-4,-1.5271618E-4,-7.635809E-4,-60.750004,2.1750002,9.3,,,,,,,,,,,,,,,,,,,,,,
CELLULAR,1789662429954,,,,,,,,,,,,,,,,,,,true,NR,4298047490,405,869,,75,403,634080,-105,NR_SS_RSRP,4,
SENSOR,1789662430008,42160264495810,0.13459627,0.23060828,9.863514,3.0543236E-4,-4.5814854E-4,-4.5814854E-4,-60.750004,2.1750002,9.3,,,,,,,,,,,,,,,,,,,,,,
SENSOR,1789662430026,42160274495810,0.13459627,0.23060828,9.863514,3.0543236E-4,-4.5814854E-4,-4.5814854E-4,-60.300003,1.725,8.1,,,,,,,,,,,,,,,,,,,,,,
SENSOR,1789662430042,42160259750289,0.13519448,0.23060828,9.864711,3.0543236E-4,-4.5814854E-4,-4.5814854E-4,-60.300003,1.725,8.1,,,,,,,,,,,,,,,,,,,,,,
SENSOR,1789662430104,42160364495810,0.13519448,0.23060828,9.864711,3.0543236E-4,-4.5814854E-4,4.5814854E-4,-60.300003,1.725,8.1,,,,,,,,,,,,,,,,,,,,,,
SENSOR,1789662430129,42160374495810,0.13519448,0.23060828,9.864711,3.0543236E-4,-4.5814854E-4,4.5814854E-4,-60.45,2.25,8.175,,,,,,,,,,,,,,,,,,,,,,
SENSOR,1789662430147,42160363937737,0.1363909,0.2318047,9.862318,3.0543236E-4,-4.5814854E-4,4.5814854E-4,-60.45,2.25,8.175,,,,,,,,,,,,,,,,,,,,,,
SENSOR,1789662430207,42160464495810,0.1363909,0.2318047,9.862318,-6.108647E-4,-4.5814854E-4,-7.635809E-4,-60.45,2.25,8.175,,,,,,,,,,,,,,,,,,,,,,
SENSOR,1789662430224,42160474495810,0.1363909,0.2318047,9.862318,-6.108647E-4,-4.5814854E-4,-7.635809E-4,-60.225002,2.025,8.925,,,,,,,,,,,,,,,,,,,,,,
SENSOR,1789662430251,42160468125185,0.13310076,0.22911277,9.862318,-6.108647E-4,-4.5814854E-4,-7.635809E-4,-60.225002,2.025,8.925,,,,,,,,,,,,,,,,,,,,,,
SENSOR,1789662430303,42160564495810,0.13310076,0.22911277,9.862318,0.0,-3.0543236E-4,4.5814854E-4,-60.225002,2.025,8.925,,,,,,,,,,,,,,,,,,,,,,
SENSOR,1789662430328,42160574495810,0.13310076,0.22911277,9.862318,0.0,-3.0543236E-4,4.5814854E-4,-60.750004,2.025,7.8750005,,,,,,,,,,,,,,,,,,,,,,
SENSOR,1789662430355,42160572312632,0.13549358,0.23060828,9.864112,0.0,-3.0543236E-4,4.5814854E-4,-60.750004,2.025,7.8750005,,,,,,,,,,,,,,,,,,,,,,
SENSOR,1789662430407,42160664495810,0.13549358,0.23060828,9.864112,3.0543236E-4,-0.0,1.5271618E-4,-60.750004,2.025,7.8750005,,,,,,,,,,,,,,,,,,,,,,
SENSOR,1789662430424,42160674495810,0.13549358,0.23060828,9.864112,3.0543236E-4,-0.0,1.5271618E-4,-60.45,1.725,9.075001,,,,,,,,,,,,,,,,,,,,,,
SENSOR,1789662430459,42160676500080,0.13459627,0.23060828,9.862318,3.0543236E-4,-0.0,1.5271618E-4,-60.45,1.725,9.075001,,,,,,,,,,,,,,,,,,,,,,
SENSOR,1789662430504,42160764495810,0.13459627,0.23060828,9.862318,3.0543236E-4,-3.0543236E-4,4.5814854E-4,-60.45,1.725,9.075001,,,,,,,,,,,,,,,,,,,,,,
SENSOR,1789662430528,42160774495810,0.13459627,0.23060828,9.862318,3.0543236E-4,-3.0543236E-4,4.5814854E-4,-60.375004,2.1750002,8.400001,,,,,,,,,,,,,,,,,,,,,,
SENSOR,1789662430565,42160780687528,0.13519448,0.23090738,9.862916,3.0543236E-4,-3.0543236E-4,4.5814854E-4,-60.375004,2.1750002,8.400001,,,,,,,,,,,,,,,,,,,,,,
SENSOR,1789662430607,42160864495810,0.13519448,0.23090738,9.862916,3.0543236E-4,7.635809E-4,-3.0543236E-4,-60.375004,2.1750002,8.400001,,,,,,,,,,,,,,,,,,,,,,
SENSOR,1789662430624,42160874495810,0.13519448,0.23090738,9.862916,3.0543236E-4,7.635809E-4,-3.0543236E-4,-60.45,2.625,8.625,,,,,,,,,,,,,,,,,,,,,,
SENSOR,1789662430668,42160884874976,0.13459627,0.23001008,9.864411,3.0543236E-4,7.635809E-4,-3.0543236E-4,-60.45,2.625,8.625,,,,,,,,,,,,,,,,,,,,,,
SENSOR,1789662430702,42160964495810,0.13459627,0.23001008,9.864411,3.0543236E-4,7.635809E-4,-7.635809E-4,-60.45,2.625,8.625,,,,,,,,,,,,,,,,,,,,,,
SENSOR,1789662430727,42160974495810,0.13459627,0.23001008,9.864411,3.0543236E-4,7.635809E-4,-7.635809E-4,-58.65,2.5500002,4.425,,,,,,,,,,,,,,,,,,,,,,
SENSOR,1789662430772,42160989062424,0.13519448,0.22941187,9.864411,3.0543236E-4,7.635809E-4,-7.635809E-4,-58.65,2.5500002,4.425,,,,,,,,,,,,,,,,,,,,,,
SENSOR,1789662430806,42161064495810,0.13519448,0.22941187,9.864411,-9.162971E-4,3.0543236E-4,-1.5271618E-4,-58.65,2.5500002,4.425,,,,,,,,,,,,,,,,,,,,,,
SENSOR,1789662430823,42161074495810,0.13519448,0.22941187,9.864411,-9.162971E-4,3.0543236E-4,-1.5271618E-4,-60.675003,2.1000001,8.700001,,,,,,,,,,,,,,,,,,,,,,
SENSOR,1789662430877,42161093249872,0.13519448,0.22911277,9.867104,-9.162971E-4,3.0543236E-4,-1.5271618E-4,-60.675003,2.1000001,8.700001,,,,,,,,,,,,,,,,,,,,,,
SENSOR,1789662430902,42161164495810,0.13519448,0.22911277,9.867104,-9.162971E-4,-4.5814854E-4,-6.108647E-4,-60.675003,2.1000001,8.700001,,,,,,,,,,,,,,,,,,,,,,
GNSS,1789662430907,,,,,,,,,,,true,11.0554072,76.9271226,374.70001220703125,57.541,,,94,0,,,,,,,,,,,,,
SENSOR,1789662430928,42161174495810,0.13519448,0.22911277,9.867104,-9.162971E-4,-4.5814854E-4,-6.108647E-4,-60.600002,2.25,8.175,,,,,,,,,,,,,,,,,,,,,,
CELLULAR,1789662430971,,,,,,,,,,,,,,,,,,,true,NR,4298047490,405,869,,75,403,634080,-105,NR_SS_RSRP,4,
SENSOR,1789662430985,42161197437268,0.13668999,0.23001008,9.862019,-9.162971E-4,-4.5814854E-4,-6.108647E-4,-60.600002,2.25,8.175,,,,,,,,,,,,,,,,,,,,,,
SENSOR,1789662431007,42161264495810,0.13668999,0.23001008,9.862019,3.0543236E-4,-4.5814854E-4,-0.0,-60.600002,2.25,8.175,,,,,,,,,,,,,,,,,,,,,,
SENSOR,1789662431024,42161274495810,0.13668999,0.23001008,9.862019,3.0543236E-4,-4.5814854E-4,-0.0,-60.825,2.1000001,9.3,,,,,,,,,,,,,,,,,,,,,,
SENSOR,1789662431084,42161301624716,0.13579269,0.23001008,9.863514,3.0543236E-4,-4.5814854E-4,-0.0,-60.825,2.1000001,9.3,,,,,,,,,,,,,,,,,,,,,,
SENSOR,1789662431101,42161364495810,0.13579269,0.23001008,9.863514,3.0543236E-4,-4.5814854E-4,4.5814854E-4,-60.825,2.1000001,9.3,,,,,,,,,,,,,,,,,,,,,,
SENSOR,1789662431131,42161374495810,0.13579269,0.23001008,9.863514,3.0543236E-4,-4.5814854E-4,4.5814854E-4,-60.750004,2.325,7.7250004,,,,,,,,,,,,,,,,,,,,,,
SENSOR,1789662431188,42161405812112,0.13429718,0.22911277,9.861121,3.0543236E-4,-4.5814854E-4,4.5814854E-4,-60.750004,2.325,7.7250004,,,,,,,,,,,,,,,,,,,,,,
SENSOR,1789662431205,42161464495810,0.13429718,0.22911277,9.861121,3.0543236E-4,7.635809E-4,4.5814854E-4,-60.750004,2.325,7.7250004,,,,,,,,,,,,,,,,,,,,,,
SENSOR,1789662431223,42161474495810,0.13429718,0.22911277,9.861121,3.0543236E-4,7.635809E-4,4.5814854E-4,-61.050003,2.1750002,8.925,,,,,,,,,,,,,,,,,,,,,,
SENSOR,1789662431293,42161509999560,0.13310076,0.2321038,9.862318,3.0543236E-4,7.635809E-4,4.5814854E-4,-61.050003,2.1750002,8.925,,,,,,,,,,,,,,,,,,,,,,
SENSOR,1789662431301,42161564495810,0.13310076,0.2321038,9.862318,3.0543236E-4,7.635809E-4,4.5814854E-4,-61.050003,2.1750002,8.925,,,,,,,,,,,,,,,,,,,,,,
SENSOR,1789662431330,42161574495810,0.13310076,0.2321038,9.862318,3.0543236E-4,7.635809E-4,4.5814854E-4,-60.600002,2.025,8.700001,,,,,,,,,,,,,,,,,,,,,,
SENSOR,1789662431397,42161614186955,0.13399807,0.23120649,9.859925,3.0543236E-4,7.635809E-4,4.5814854E-4,-60.600002,2.025,8.700001,,,,,,,,,,,,,,,,,,,,,,
SENSOR,1789662431406,42161664495810,0.13399807,0.23120649,9.859925,3.0543236E-4,-4.5814854E-4,4.5814854E-4,-60.600002,2.025,8.700001,,,,,,,,,,,,,,,,,,,,,,
SENSOR,1789662431423,42161674495810,0.13399807,0.23120649,9.859925,3.0543236E-4,-4.5814854E-4,4.5814854E-4,-60.45,2.1750002,8.325001,,,,,,,,,,,,,,,,,,,,,,
SENSOR,1789662431502,42161718374351,0.13459627,0.22701904,9.862916,3.0543236E-4,-4.5814854E-4,4.5814854E-4,-60.45,2.1750002,8.325001,,,,,,,,,,,,,,,,,,,,,,
SENSOR,1789662431508,42161764495810,0.13459627,0.22701904,9.862916,3.0543236E-4,-4.5814854E-4,4.5814854E-4,-60.45,2.1750002,8.325001,,,,,,,,,,,,,,,,,,,,,,
SENSOR,1789662431528,42161774495810,0.13459627,0.22701904,9.862916,3.0543236E-4,-4.5814854E-4,4.5814854E-4,-60.45,2.325,8.925,,,,,,,,,,,,,,,,,,,,,,
SENSOR,1789662431607,42161822561799,0.13369897,0.23060828,9.862617,3.0543236E-4,-4.5814854E-4,4.5814854E-4,-60.45,2.325,8.925,,,,,,,,,,,,,,,,,,,,,,
SENSOR,1789662431607,42161864495810,0.13369897,0.23060828,9.862617,3.0543236E-4,-4.5814854E-4,4.5814854E-4,-60.45,2.325,8.925,,,,,,,,,,,,,,,,,,,,,,
SENSOR,1789662431622,42161874495810,0.13369897,0.23060828,9.862617,3.0543236E-4,-4.5814854E-4,4.5814854E-4,-61.2,1.6500001,9.0,,,,,,,,,,,,,,,,,,,,,,
SENSOR,1789662431710,42161926749195,0.13399807,0.22881366,9.862916,3.0543236E-4,-4.5814854E-4,4.5814854E-4,-61.2,1.6500001,9.0,,,,,,,,,,,,,,,,,,,,,,
SENSOR,1789662431712,42161964495810,0.13399807,0.22881366,9.862916,-9.162971E-4,-3.0543236E-4,4.5814854E-4,-61.2,1.6500001,9.0,,,,,,,,,,,,,,,,,,,,,,
SENSOR,1789662431726,42161974495810,0.13399807,0.22881366,9.862916,-9.162971E-4,-3.0543236E-4,4.5814854E-4,-61.275,1.575,8.025001,,,,,,,,,,,,,,,,,,,,,,
SENSOR,1789662431805,42162064495810,0.13399807,0.22881366,9.862916,-4.5814854E-4,-4.5814854E-4,4.5814854E-4,-61.275,1.575,8.025001,,,,,,,,,,,,,,,,,,,,,,
SENSOR,1789662431814,42162030936591,0.13280165,0.23030917,9.862916,-4.5814854E-4,-4.5814854E-4,4.5814854E-4,-61.275,1.575,8.025001,,,,,,,,,,,,,,,,,,,,,,
SENSOR,1789662431823,42162074495810,0.13280165,0.23030917,9.862916,-4.5814854E-4,-4.5814854E-4,4.5814854E-4,-61.050003,2.1750002,9.075001,,,,,,,,,,,,,,,,,,,,,,
GNSS,1789662431910,,,,,,,,,,,true,11.0554072,76.9271226,374.70001220703125,57.541,,,94,0,,,,,,,,,,,,,
SENSOR,1789662431927,42162164495810,0.13280165,0.23030917,9.862916,-7.635809E-4,-4.5814854E-4,4.5814854E-4,-61.050003,2.1750002,9.075001,,,,,,,,,,,,,,,,,,,,,,
SENSOR,1789662431928,42162135124039,0.13519448,0.23060828,9.861719,-7.635809E-4,-4.5814854E-4,4.5814854E-4,-61.050003,2.1750002,9.075001,,,,,,,,,,,,,,,,,,,,,,
SENSOR,1789662431928,42162174495810,0.13519448,0.23060828,9.861719,-7.635809E-4,-4.5814854E-4,4.5814854E-4,-60.15,2.25,8.55,,,,,,,,,,,,,,,,,,,,,,
GNSS,1789662432000,,,,,,,,,,,true,11.05529994,76.92709541,378.19451904296875,8.718875,0.0,,94,0,,,,,,,,,,,,,
CELLULAR,1789662431985,,,,,,,,,,,,,,,,,,,true,NR,4298047490,405,869,,75,403,634080,-105,NR_SS_RSRP,4,
SENSOR,1789662432004,42162264495810,0.13519448,0.23060828,9.861719,3.0543236E-4,0.0,-7.635809E-4,-60.15,2.25,8.55,,,,,,,,,,,,,,,,,,,,,,
SENSOR,1789662432022,42162239311435,0.13519448,0.22881366,9.861719,3.0543236E-4,0.0,-7.635809E-4,-60.15,2.25,8.55,,,,,,,,,,,,,,,,,,,,,,
SENSOR,1789662432023,42162274495810,0.13519448,0.22881366,9.861719,3.0543236E-4,0.0,-7.635809E-4,-60.375004,2.4,7.5750003,,,,,,,,,,,,,,,,,,,,,,
SENSOR,1789662432108,42162364495810,0.13519448,0.22881366,9.861719,3.0543236E-4,-3.0543236E-4,4.5814854E-4,-60.375004,2.4,7.5750003,,,,,,,,,,,,,,,,,,,,,,
SENSOR,1789662432128,42162343498830,0.13668999,0.22941187,9.864112,3.0543236E-4,-3.0543236E-4,4.5814854E-4,-60.375004,2.4,7.5750003,,,,,,,,,,,,,,,,,,,,,,
SENSOR,1789662432128,42162374495810,0.13668999,0.22941187,9.864112,3.0543236E-4,-3.0543236E-4,4.5814854E-4,-60.825,2.025,8.925,,,,,,,,,,,,,,,,,,,,,,
SENSOR,1789662432205,42162464495810,0.13668999,0.22941187,9.864112,-4.5814854E-4,7.635809E-4,4.5814854E-4,-60.825,2.025,8.925,,,,,,,,,,,,,,,,,,,,,,
SENSOR,1789662432222,42162474495810,0.13668999,0.22941187,9.864112,-4.5814854E-4,7.635809E-4,4.5814854E-4,-60.975002,2.1000001,8.925,,,,,,,,,,,,,,,,,,,,,,
SENSOR,1789662432231,42162447686226,0.13519448,0.22881366,9.861121,-4.5814854E-4,7.635809E-4,4.5814854E-4,-60.975002,2.1000001,8.925,,,,,,,,,,,,,,,,,,,,,,
SENSOR,1789662432309,42162564495810,0.13519448,0.22881366,9.861121,-7.635809E-4,6.108647E-4,4.5814854E-4,-60.975002,2.1000001,8.925,,,,,,,,,,,,,,,,,,,,,,
SENSOR,1789662432326,42162574495810,0.13519448,0.22881366,9.861121,-7.635809E-4,6.108647E-4,4.5814854E-4,-60.975002,2.1750002,9.225,,,,,,,,,,,,,,,,,,,,,,
SENSOR,1789662432334,42162551873622,0.13609178,0.23120649,9.862318,-7.635809E-4,6.108647E-4,4.5814854E-4,-60.975002,2.1750002,9.225,,,,,,,,,,,,,,,,,,,,,,
SENSOR,1789662432405,42162664495810,0.13609178,0.23120649,9.862318,3.0543236E-4,7.635809E-4,4.5814854E-4,-60.975002,2.1750002,9.225,,,,,,,,,,,,,,,,,,,,,,
SENSOR,1789662432423,42162674495810,0.13609178,0.23120649,9.862318,3.0543236E-4,7.635809E-4,4.5814854E-4,-60.9,1.725,8.925,,,,,,,,,,,,,,,,,,,,,,
SENSOR,1789662432439,42162656061018,0.13549358,0.22851457,9.862916,3.0543236E-4,7.635809E-4,4.5814854E-4,-60.9,1.725,8.925,,,,,,,,,,,,,,,,,,,,,,
SENSOR,1789662432509,42162764495810,0.13549358,0.22851457,9.862916,3.0543236E-4,-4.5814854E-4,3.0543236E-4,-60.9,1.725,8.925,,,,,,,,,,,,,,,,,,,,,,
SENSOR,1789662432527,42162774495810,0.13549358,0.22851457,9.862916,3.0543236E-4,-4.5814854E-4,3.0543236E-4,-61.125004,2.625,9.3,,,,,,,,,,,,,,,,,,,,,,
SENSOR,1789662432544,42162760248414,0.13579269,0.22881366,9.859925,3.0543236E-4,-4.5814854E-4,3.0543236E-4,-61.125004,2.625,9.3,,,,,,,,,,,,,,,,,,,,,,
SENSOR,1789662432603,42162864495810,0.13579269,0.22881366,9.859925,3.0543236E-4,-4.5814854E-4,-4.5814854E-4,-61.125004,2.625,9.3,,,,,,,,,,,,,,,,,,,,,,
SENSOR,1789662432630,42162874495810,0.13579269,0.22881366,9.859925,3.0543236E-4,-4.5814854E-4,-4.5814854E-4,-60.600002,2.025,8.175,,,,,,,,,,,,,,,,,,,,,,
SENSOR,1789662432647,42162864435810,0.13310076,0.22971097,9.862318,3.0543236E-4,-4.5814854E-4,-4.5814854E-4,-60.600002,2.025,8.175,,,,,,,,,,,,,,,,,,,,,,
SENSOR,1789662432710,42162964495810,0.13310076,0.22971097,9.862318,3.0543236E-4,7.635809E-4,4.5814854E-4,-60.600002,2.025,8.175,,,,,,,,,,,,,,,,,,,,,,
SENSOR,1789662432726,42162974495810,0.13310076,0.22971097,9.862318,3.0543236E-4,7.635809E-4,4.5814854E-4,-60.600002,1.575,9.150001,,,,,,,,,,,,,,,,,,,,,,
SENSOR,1789662432751,42162968623205,0.13519448,0.23001008,9.862318,3.0543236E-4,7.635809E-4,4.5814854E-4,-60.600002,1.575,9.150001,,,,,,,,,,,,,,,,,,,,,,
SENSOR,1789662432804,42163064495810,0.13519448,0.23001008,9.862318,-6.108647E-4,-4.5814854E-4,4.5814854E-4,-60.600002,1.575,9.150001,,,,,,,,,,,,,,,,,,,,,,
SENSOR,1789662432831,42163074495810,0.13519448,0.23001008,9.862318,-6.108647E-4,-4.5814854E-4,4.5814854E-4,-61.050003,2.325,8.700001,,,,,,,,,,,,,,,,,,,,,,
SENSOR,1789662432855,42163072810601,0.13549358,0.2318047,9.8632145,-6.108647E-4,-4.5814854E-4,4.5814854E-4,-61.050003,2.325,8.700001,,,,,,,,,,,,,,,,,,,,,,
SENSOR,1789662432910,42163164495810,0.13549358,0.2318047,9.8632145,-9.162971E-4,-4.5814854E-4,4.5814854E-4,-61.050003,2.325,8.700001,,,,,,,,,,,,,,,,,,,,,,
GNSS,1789662432911,,,,,,,,,,,true,11.05529994,76.92709541,378.19451904296875,8.718875,0.0,,96,21,,,,,,,,,,,,,
SENSOR,1789662432927,42163174495810,0.13549358,0.2318047,9.8632145,-9.162971E-4,-4.5814854E-4,4.5814854E-4,-60.45,2.4750001,8.325001,,,,,,,,,,,,,,,,,,,,,,
GNSS,1789662433000,,,,,,,,,,,true,11.05530134,76.9270965,377.9317626953125,4.572992,0.0,,96,21,,,,,,,,,,,,,
SENSOR,1789662432959,42163176997945,0.13519448,0.23030917,9.864711,-9.162971E-4,-4.5814854E-4,4.5814854E-4,-60.45,2.4750001,8.325001,,,,,,,,,,,,,,,,,,,,,,
CELLULAR,1789662433001,,,,,,,,,,,,,,,,,,,true,NR,4298047490,405,869,,75,403,634080,-105,NR_SS_RSRP,4,
SENSOR,1789662433025,42163264495810,0.13519448,0.23030917,9.864711,0.0,4.5814854E-4,-7.635809E-4,-60.45,2.4750001,8.325001,,,,,,,,,,,,,,,,,,,,,,
SENSOR,1789662433030,42163274495810,0.13519448,0.23030917,9.864711,0.0,4.5814854E-4,-7.635809E-4,-60.750004,2.1750002,9.450001,,,,,,,,,,,,,,,,,,,,,,
SENSOR,1789662433064,42163281185341,0.13579269,0.22941187,9.864112,0.0,4.5814854E-4,-7.635809E-4,-60.750004,2.1750002,9.450001,,,,,,,,,,,,,,,,,,,,,,
SENSOR,1789662433107,42163364495810,0.13579269,0.22941187,9.864112,-6.108647E-4,-4.5814854E-4,1.5271618E-4,-60.750004,2.1750002,9.450001,,,,,,,,,,,,,,,,,,,,,,
SENSOR,1789662433126,42163374495810,0.13579269,0.22941187,9.864112,-6.108647E-4,-4.5814854E-4,1.5271618E-4,-60.375004,2.1000001,9.075001,,,,,,,,,,,,,,,,,,,,,,
SENSOR,1789662433167,42163385372685,0.13399807,0.22941187,9.8632145,-6.108647E-4,-4.5814854E-4,1.5271618E-4,-60.375004,2.1000001,9.075001,,,,,,,,,,,,,,,,,,,,,,
SENSOR,1789662433203,42163464495810,0.13399807,0.22941187,9.8632145,3.0543236E-4,-4.5814854E-4,-4.5814854E-4,-60.375004,2.1000001,9.075001,,,,,,,,,,,,,,,,,,,,,,
SENSOR,1789662433228,42163474495810,0.13399807,0.22941187,9.8632145,3.0543236E-4,-4.5814854E-4,-4.5814854E-4,-60.9,1.8750001,8.625,,,,,,,,,,,,,,,,,,,,,,
SENSOR,1789662433273,42163489560080,0.13519448,0.22881366,9.865608,3.0543236E-4,-4.5814854E-4,-4.5814854E-4,-60.9,1.8750001,8.625,,,,,,,,,,,,,,,,,,,,,,
SENSOR,1789662433308,42163564495810,0.13519448,0.22881366,9.865608,3.0543236E-4,-4.5814854E-4,4.5814854E-4,-60.9,1.8750001,8.625,,,,,,,,,,,,,,,,,,,,,,
SENSOR,1789662433325,42163574495810,0.13519448,0.22881366,9.865608,3.0543236E-4,-4.5814854E-4,4.5814854E-4,-60.9,2.25,9.0,,,,,,,,,,,,,,,,,,,,,,
SENSOR,1789662433376,42163593747424,0.13429718,0.23120649,9.862318,3.0543236E-4,-4.5814854E-4,4.5814854E-4,-60.9,2.25,9.0,,,,,,,,,,,,,,,,,,,,,,
SENSOR,1789662433404,42163664495810,0.13429718,0.23120649,9.862318,3.0543236E-4,-4.5814854E-4,4.5814854E-4,-60.9,2.25,9.0,,,,,,,,,,,,,,,,,,,,,,
SENSOR,1789662433429,42163674495810,0.13429718,0.23120649,9.862318,3.0543236E-4,-4.5814854E-4,4.5814854E-4,-60.975002,1.8750001,8.55,,,,,,,,,,,,,,,,,,,,,,
SENSOR,1789662433480,42163697934768,0.13519448,0.2318047,9.861719,3.0543236E-4,-4.5814854E-4,4.5814854E-4,-60.975002,1.8750001,8.55,,,,,,,,,,,,,,,,,,,,,,
SENSOR,1789662433507,42163764495810,0.13519448,0.2318047,9.861719,3.0543236E-4,7.635809E-4,4.5814854E-4,-60.975002,1.8750001,8.55,,,,,,,,,,,,,,,,,,,,,,
SENSOR,1789662433525,42163774495810,0.13519448,0.2318047,9.861719,3.0543236E-4,7.635809E-4,4.5814854E-4,-61.125004,1.8000001,8.55,,,,,,,,,,,,,,,,,,,,,,
SENSOR,1789662433585,42163802122112,0.13399807,0.23120649,9.862318,3.0543236E-4,7.635809E-4,4.5814854E-4,-61.125004,1.8000001,8.55,,,,,,,,,,,,,,,,,,,,,,
SENSOR,1789662433602,42163864495810,0.13399807,0.23120649,9.862318,1.5271618E-4,-4.5814854E-4,-6.108647E-4,-61.125004,1.8000001,8.55,,,,,,,,,,,,,,,,,,,,,,
SENSOR,1789662433628,42163874495810,0.13399807,0.23120649,9.862318,1.5271618E-4,-4.5814854E-4,-6.108647E-4,-61.125004,1.725,8.700001,,,,,,,,,,,,,,,,,,,,,,
SENSOR,1789662433689,42163906309455,0.13579269,0.22821546,9.862617,1.5271618E-4,-4.5814854E-4,-6.108647E-4,-61.125004,1.725,8.700001,,,,,,,,,,,,,,,,,,,,,,
SENSOR,1789662433707,42163964495810,0.13579269,0.22821546,9.862617,3.0543236E-4,7.635809E-4,-7.635809E-4,-61.125004,1.725,8.700001,,,,,,,,,,,,,,,,,,,,,,
SENSOR,1789662433724,42163974495810,0.13579269,0.22821546,9.862617,3.0543236E-4,7.635809E-4,-7.635809E-4,-60.675003,2.025,8.475,,,,,,,,,,,,,,,,,,,,,,
SENSOR,1789662433794,42164010496799,0.13489537,0.2318047,9.865009,3.0543236E-4,7.635809E-4,-7.635809E-4,-60.675003,2.025,8.475,,,,,,,,,,,,,,,,,,,,,,
SENSOR,1789662433802,42164064495810,0.13489537,0.2318047,9.865009,3.0543236E-4,-4.5814854E-4,-7.635809E-4,-60.675003,2.025,8.475,,,,,,,,,,,,,,,,,,,,,,
SENSOR,1789662433828,42164074495810,0.13489537,0.2318047,9.865009,3.0543236E-4,-4.5814854E-4,-7.635809E-4,-60.9,1.8000001,9.3,,,,,,,,,,,,,,,,,,,,,,
SENSOR,1789662433897,42164114684091,0.13399807,0.23060828,9.862617,3.0543236E-4,-4.5814854E-4,-7.635809E-4,-60.9,1.8000001,9.3,,,,,,,,,,,,,,,,,,,,,,
SENSOR,1789662433907,42164164495810,0.13399807,0.23060828,9.862617,-9.162971E-4,1.5271618E-4,-1.5271618E-4,-60.9,1.8000001,9.3,,,,,,,,,,,,,,,,,,,,,,
GNSS,1789662433909,,,,,,,,,,,true,11.05530134,76.9270965,377.9317626953125,4.572992,0.0,,97,30,,,,,,,,,,,,,
GNSS,1789662434000,,,,,,,,,,,true,11.05530326,76.92709644,378.0865478515625,3.9674933,0.0,,97,30,,,,,,,,,,,,,
SENSOR,1789662433925,42164174495810,0.13399807,0.23060828,9.862617,-9.162971E-4,1.5271618E-4,-1.5271618E-4,-60.525,2.1000001,8.85,,,,,,,,,,,,,,,,,,,,,,
SENSOR,1789662434001,42164218871382,0.1363909,0.22851457,9.864112,-9.162971E-4,1.5271618E-4,-1.5271618E-4,-60.525,2.1000001,8.85,,,,,,,,,,,,,,,,,,,,,,
SENSOR,1789662434001,42164264495810,0.1363909,0.22851457,9.864112,3.0543236E-4,-4.5814854E-4,-7.635809E-4,-60.525,2.1000001,8.85,,,,,,,,,,,,,,,,,,,,,,
CELLULAR,1789662434026,,,,,,,,,,,,,,,,,,,true,NR,4298047490,405,869,,75,403,634080,-105,NR_SS_RSRP,4,
SENSOR,1789662434050,42164274495810,0.1363909,0.22851457,9.864112,3.0543236E-4,-4.5814854E-4,-7.635809E-4,-60.300003,2.1750002,8.85,,,,,,,,,,,,,,,,,,,,,,
SENSOR,1789662434106,42164323058726,0.13609178,0.2318047,9.863514,3.0543236E-4,-4.5814854E-4,-7.635809E-4,-60.300003,2.1750002,8.85,,,,,,,,,,,,,,,,,,,,,,
SENSOR,1789662434107,42164364495810,0.13609178,0.2318047,9.863514,3.0543236E-4,1.5271618E-4,-1.5271618E-4,-60.300003,2.1750002,8.85,,,,,,,,,,,,,,,,,,,,,,
SENSOR,1789662434123,42164374495810,0.13609178,0.2318047,9.863514,3.0543236E-4,1.5271618E-4,-1.5271618E-4,-60.600002,1.95,8.85,,,,,,,,,,,,,,,,,,,,,,
SENSOR,1789662434210,42164427246018,0.13579269,0.2318047,9.861421,3.0543236E-4,1.5271618E-4,-1.5271618E-4,-60.600002,1.95,8.85,,,,,,,,,,,,,,,,,,,,,,
SENSOR,1789662434212,42164464495810,0.13579269,0.2318047,9.861421,3.0543236E-4,-4.5814854E-4,-7.635809E-4,-60.600002,1.95,8.85,,,,,,,,,,,,,,,,,,,,,,
SENSOR,1789662434227,42164474495810,0.13579269,0.2318047,9.861421,3.0543236E-4,-4.5814854E-4,-7.635809E-4,-60.675003,2.025,8.925,,,,,,,,,,,,,,,,,,,,,,
SENSOR,1789662434306,42164564495810,0.13579269,0.2318047,9.861421,-3.0543236E-4,7.635809E-4,4.5814854E-4,-60.675003,2.025,8.925,,,,,,,,,,,,,,,,,,,,,,
SENSOR,1789662434314,42164531433310,0.13519448,0.2318047,9.863514,-3.0543236E-4,7.635809E-4,4.5814854E-4,-60.675003,2.025,8.925,,,,,,,,,,,,,,,,,,,,,,
SENSOR,1789662434323,42164574495810,0.13519448,0.2318047,9.863514,-3.0543236E-4,7.635809E-4,4.5814854E-4,-60.675003,2.1000001,9.150001,,,,,,,,,,,,,,,,,,,,,,
SENSOR,1789662434411,42164664495810,0.13519448,0.2318047,9.863514,3.0543236E-4,-4.5814854E-4,4.5814854E-4,-60.675003,2.1000001,9.150001,,,,,,,,,,,,,,,,,,,,,,
SENSOR,1789662434419,42164635620549,0.13399807,0.23090738,9.8632145,3.0543236E-4,-4.5814854E-4,4.5814854E-4,-60.675003,2.1000001,9.150001,,,,,,,,,,,,,,,,,,,,,,
SENSOR,1789662434427,42164674495810,0.13399807,0.23090738,9.8632145,3.0543236E-4,-4.5814854E-4,4.5814854E-4,-60.600002,2.25,8.625,,,,,,,,,,,,,,,,,,,,,,
SENSOR,1789662434505,42164764495810,0.13399807,0.23090738,9.8632145,3.0543236E-4,1.5271618E-4,4.5814854E-4,-60.600002,2.25,8.625,,,,,,,,,,,,,,,,,,,,,,
SENSOR,1789662434523,42164739807841,0.13459627,0.22851457,9.862916,3.0543236E-4,1.5271618E-4,4.5814854E-4,-60.600002,2.25,8.625,,,,,,,,,,,,,,,,,,,,,,
SENSOR,1789662434525,42164774495810,0.13459627,0.22851457,9.862916,3.0543236E-4,1.5271618E-4,4.5814854E-4,-60.525,2.1750002,7.425,,,,,,,,,,,,,,,,,,,,,,
SENSOR,1789662434609,42164864495810,0.13459627,0.22851457,9.862916,3.0543236E-4,7.635809E-4,4.5814854E-4,-60.525,2.1750002,7.425,,,,,,,,,,,,,,,,,,,,,,
SENSOR,1789662434625,42164843995080,0.13190435,0.23060828,9.862916,3.0543236E-4,7.635809E-4,4.5814854E-4,-60.525,2.1750002,7.425,,,,,,,,,,,,,,,,,,,,,,
SENSOR,1789662434626,42164874495810,0.13190435,0.23060828,9.862916,3.0543236E-4,7.635809E-4,4.5814854E-4,-60.075,1.95,8.1,,,,,,,,,,,,,,,,,,,,,,
SENSOR,1789662434706,42164964495810,0.13190435,0.23060828,9.862916,3.0543236E-4,-4.5814854E-4,4.5814854E-4,-60.075,1.95,8.1,,,,,,,,,,,,,,,,,,,,,,
SENSOR,1789662434723,42164974495810,0.13190435,0.23060828,9.862916,3.0543236E-4,-4.5814854E-4,4.5814854E-4,-60.750004,2.1000001,8.625,,,,,,,,,,,,,,,,,,,,,,
SENSOR,1789662434730,42164948182372,0.13579269,0.23120649,9.8632145,3.0543236E-4,-4.5814854E-4,4.5814854E-4,-60.750004,2.1000001,8.625,,,,,,,,,,,,,,,,,,,,,,
SENSOR,1789662434809,42165064495810,0.13579269,0.23120649,9.8632145,3.0543236E-4,-4.5814854E-4,3.0543236E-4,-60.750004,2.1000001,8.625,,,,,,,,,,,,,,,,,,,,,,
SENSOR,1789662434827,42165074495810,0.13579269,0.23120649,9.8632145,3.0543236E-4,-4.5814854E-4,3.0543236E-4,-60.45,2.25,8.475,,,,,,,,,,,,,,,,,,,,,,
SENSOR,1789662434836,42165052369612,0.13399807,0.22941187,9.864112,3.0543236E-4,-4.5814854E-4,3.0543236E-4,-60.45,2.25,8.475,,,,,,,,,,,,,,,,,,,,,,
GNSS,1789662434904,,,,,,,,,,,true,11.05530326,76.92709644,378.0865478515625,3.9674933,0.0,,97,34,,,,,,,,,,,,,
SENSOR,1789662434919,42165164495810,0.13399807,0.22941187,9.864112,-1.5271618E-4,-4.5814854E-4,-3.0543236E-4,-60.45,2.25,8.475,,,,,,,,,,,,,,,,,,,,,,
GNSS,1789662435000,,,,,,,,,,,true,11.05530561,76.92709865,377.9736328125,3.7900925,0.0,,97,34,,,,,,,,,,,,,
SENSOR,1789662434923,42165174495810,0.13399807,0.22941187,9.864112,-1.5271618E-4,-4.5814854E-4,-3.0543236E-4,-60.600002,2.25,9.225,,,,,,,,,,,,,,,,,,,,,,
SENSOR,1789662434939,42165156556851,0.1363909,0.23001008,9.864711,-1.5271618E-4,-4.5814854E-4,-3.0543236E-4,-60.600002,2.25,9.225,,,,,,,,,,,,,,,,,,,,,,
SENSOR,1789662435010,42165264495810,0.1363909,0.23001008,9.864711,3.0543236E-4,-4.5814854E-4,4.5814854E-4,-60.600002,2.25,9.225,,,,,,,,,,,,,,,,,,,,,,
SENSOR,1789662435026,42165274495810,0.1363909,0.23001008,9.864711,3.0543236E-4,-4.5814854E-4,4.5814854E-4,-60.975002,1.8000001,9.225,,,,,,,,,,,,,,,,,,,,,,
SENSOR,1789662435044,42165260744039,0.13489537,0.23060828,9.863514,3.0543236E-4,-4.5814854E-4,4.5814854E-4,-60.975002,1.8000001,9.225,,,,,,,,,,,,,,,,,,,,,,
CELLULAR,1789662435049,,,,,,,,,,,,,,,,,,,true,NR,4298047490,405,869,,75,403,634080,-105,NR_SS_RSRP,4,
SENSOR,1789662435105,42165364495810,0.13489537,0.23060828,9.863514,3.0543236E-4,-4.5814854E-4,-7.635809E-4,-60.975002,1.8000001,9.225,,,,,,,,,,,,,,,,,,,,,,
SENSOR,1789662435122,42165374495810,0.13489537,0.23060828,9.863514,3.0543236E-4,-4.5814854E-4,-7.635809E-4,-60.675003,2.025,8.700001,,,,,,,,,,,,,,,,,,,,,,
SENSOR,1789662435148,42165364931278,0.13579269,0.22911277,9.865009,3.0543236E-4,-4.5814854E-4,-7.635809E-4,-60.675003,2.025,8.700001,,,,,,,,,,,,,,,,,,,,,,
SENSOR,1789662435208,42165464495810,0.13579269,0.22911277,9.865009,3.0543236E-4,-4.5814854E-4,3.0543236E-4,-60.675003,2.025,8.700001,,,,,,,,,,,,,,,,,,,,,,
SENSOR,1789662435226,42165474495810,0.13579269,0.22911277,9.865009,3.0543236E-4,-4.5814854E-4,3.0543236E-4,-60.45,1.5,8.325001,,,,,,,,,,,,,,,,,,,,,,
SENSOR,1789662435252,42165469118518,0.13429718,0.2318047,9.861719,3.0543236E-4,-4.5814854E-4,3.0543236E-4,-60.45,1.5,8.325001,,,,,,,,,,,,,,,,,,,,,,
SENSOR,1789662435304,42165564495810,0.13429718,0.2318047,9.861719,-9.162971E-4,-4.5814854E-4,-4.5814854E-4,-60.45,1.5,8.325001,,,,,,,,,,,,,,,,,,,,,,
SENSOR,1789662435330,42165574495810,0.13429718,0.2318047,9.861719,-9.162971E-4,-4.5814854E-4,-4.5814854E-4,-60.675003,1.725,8.1,,,,,,,,,,,,,,,,,,,,,,
SENSOR,1789662435356,42165573305705,0.13609178,0.23060828,9.865907,-9.162971E-4,-4.5814854E-4,-4.5814854E-4,-60.675003,1.725,8.1,,,,,,,,,,,,,,,,,,,,,,
SENSOR,1789662435407,42165664495810,0.13609178,0.23060828,9.865907,3.0543236E-4,-3.0543236E-4,4.5814854E-4,-60.675003,1.725,8.1,,,,,,,,,,,,,,,,,,,,,,
SENSOR,1789662435426,42165674495810,0.13609178,0.23060828,9.865907,3.0543236E-4,-3.0543236E-4,4.5814854E-4,-61.275,2.1000001,9.825001,,,,,,,,,,,,,,,,,,,,,,
SENSOR,1789662435460,42165677492893,0.13758731,0.2321038,9.864411,3.0543236E-4,-3.0543236E-4,4.5814854E-4,-61.275,2.1000001,9.825001,,,,,,,,,,,,,,,,,,,,,,
SENSOR,1789662435503,42165764495810,0.13758731,0.2321038,9.864411,3.0543236E-4,3.0543236E-4,4.5814854E-4,-61.275,2.1000001,9.825001,,,,,,,,,,,,,,,,,,,,,,
SENSOR,1789662435530,42165774495810,0.13758731,0.2321038,9.864411,3.0543236E-4,3.0543236E-4,4.5814854E-4,-60.9,2.1000001,9.525001,,,,,,,,,,,,,,,,,,,,,,
SENSOR,1789662435564,42165781680080,0.13489537,0.23150559,9.864711,3.0543236E-4,3.0543236E-4,4.5814854E-4,-60.9,2.1000001,9.525001,,,,,,,,,,,,,,,,,,,,,,
SENSOR,1789662435608,42165864495810,0.13489537,0.23150559,9.864711,3.0543236E-4,-4.5814854E-4,-4.5814854E-4,-60.9,2.1000001,9.525001,,,,,,,,,,,,,,,,,,,,,,
SENSOR,1789662435626,42165874495810,0.13489537,0.23150559,9.864711,3.0543236E-4,-4.5814854E-4,-4.5814854E-4,-60.825,2.025,9.450001,,,,,,,,,,,,,,,,,,,,,,
SENSOR,1789662435668,42165885867268,0.13519448,0.22941187,9.864711,3.0543236E-4,-4.5814854E-4,-4.5814854E-4,-60.825,2.025,9.450001,,,,,,,,,,,,,,,,,,,,,,
SENSOR,1789662435703,42165964495810,0.13519448,0.22941187,9.864711,3.0543236E-4,4.5814854E-4,4.5814854E-4,-60.825,2.025,9.450001,,,,,,,,,,,,,,,,,,,,,,
SENSOR,1789662435730,42165974495810,0.13519448,0.22941187,9.864711,3.0543236E-4,4.5814854E-4,4.5814854E-4,-60.9,1.8000001,8.700001,,,,,,,,,,,,,,,,,,,,,,
SENSOR,1789662435773,42165990054455,0.13609178,0.22941187,9.866505,3.0543236E-4,4.5814854E-4,4.5814854E-4,-60.9,1.8000001,8.700001,,,,,,,,,,,,,,,,,,,,,,
SENSOR,1789662435807,42166064495810,0.13609178,0.22941187,9.866505,3.0543236E-4,-4.5814854E-4,4.5814854E-4,-60.9,1.8000001,8.700001,,,,,,,,,,,,,,,,,,,,,,
SENSOR,1789662435824,42166074495810,0.13609178,0.22941187,9.866505,3.0543236E-4,-4.5814854E-4,4.5814854E-4,-60.300003,1.575,6.9750004,,,,,,,,,,,,,,,,,,,,,,
SENSOR,1789662435878,42166094241591,0.13399807,0.22761725,9.864112,3.0543236E-4,-4.5814854E-4,4.5814854E-4,-60.300003,1.575,6.9750004,,,,,,,,,,,,,,,,,,,,,,
SENSOR,1789662435905,42166164495810,0.13399807,0.22761725,9.864112,-7.635809E-4,-4.5814854E-4,-4.5814854E-4,-60.300003,1.575,6.9750004,,,,,,,,,,,,,,,,,,,,,,
GNSS,1789662435905,,,,,,,,,,,true,11.05530561,76.92709865,377.9736328125,3.7900925,0.0,,97,38,,,,,,,,,,,,,
GNSS,1789662436000,,,,,,,,,,,true,11.05530574,76.92709861,377.90020751953125,3.7900925,0.0,,97,38,,,,,,,,,,,,,
SENSOR,1789662435930,42166174495810,0.13399807,0.22761725,9.864112,-7.635809E-4,-4.5814854E-4,-4.5814854E-4,-60.300003,1.95,7.275,,,,,,,,,,,,,,,,,,,,,,
SENSOR,1789662435982,42166198428778,0.13399807,0.23090738,9.864411,-7.635809E-4,-4.5814854E-4,-4.5814854E-4,-60.300003,1.95,7.275,,,,,,,,,,,,,,,,,,,,,,
SENSOR,1789662436007,42166264495810,0.13399807,0.23090738,9.864411,3.0543236E-4,-4.5814854E-4,-7.635809E-4,-60.300003,1.95,7.275,,,,,,,,,,,,,,,,,,,,,,
SENSOR,1789662436025,42166274495810,0.13399807,0.23090738,9.864411,3.0543236E-4,-4.5814854E-4,-7.635809E-4,-60.750004,2.5500002,9.150001,,,,,,,,,,,,,,,,,,,,,,
CELLULAR,1789662436069,,,,,,,,,,,,,,,,,,,true,NR,4298047490,405,869,,75,403,634080,-105,NR_SS_RSRP,4,
SENSOR,1789662436095,42166302615914,0.13579269,0.22941187,9.867104,3.0543236E-4,-4.5814854E-4,-7.635809E-4,-60.750004,2.5500002,9.150001,,,,,,,,,,,,,,,,,,,,,,
SENSOR,1789662436102,42166364495810,0.13579269,0.22941187,9.867104,1.5271618E-4,-4.5814854E-4,-7.635809E-4,-60.750004,2.5500002,9.150001,,,,,,,,,,,,,,,,,,,,,,
SENSOR,1789662436128,42166374495810,0.13579269,0.22941187,9.867104,1.5271618E-4,-4.5814854E-4,-7.635809E-4,-60.600002,2.1000001,8.925,,,,,,,,,,,,,,,,,,,,,,
SENSOR,1789662436190,42166406803049,0.13519448,0.23001008,9.863514,1.5271618E-4,-4.5814854E-4,-7.635809E-4,-60.600002,2.1000001,8.925,,,,,,,,,,,,,,,,,,,,,,
SENSOR,1789662436208,42166464495810,0.13519448,0.23001008,9.863514,3.0543236E-4,3.0543236E-4,4.5814854E-4,-60.600002,2.1000001,8.925,,,,,,,,,,,,,,,,,,,,,,
SENSOR,1789662436225,42166474495810,0.13519448,0.23001008,9.863514,3.0543236E-4,3.0543236E-4,4.5814854E-4,-60.9,1.8750001,9.225,,,,,,,,,,,,,,,,,,,,,,
SENSOR,1789662436295,42166510990185,0.13758731,0.22881366,9.863514,3.0543236E-4,3.0543236E-4,4.5814854E-4,-60.9,1.8750001,9.225,,,,,,,,,,,,,,,,,,,,,,
SENSOR,1789662436302,42166564495810,0.13758731,0.22881366,9.863514,3.0543236E-4,-4.5814854E-4,4.5814854E-4,-60.9,1.8750001,9.225,,,,,,,,,,,,,,,,,,,,,,
SENSOR,1789662436328,42166574495810,0.13758731,0.22881366,9.863514,3.0543236E-4,-4.5814854E-4,4.5814854E-4,-60.750004,2.1750002,9.450001,,,,,,,,,,,,,,,,,,,,,,
SENSOR,1789662436397,42166615177320,0.13459627,0.23060828,9.865907,3.0543236E-4,-4.5814854E-4,4.5814854E-4,-60.750004,2.1750002,9.450001,,,,,,,,,,,,,,,,,,,,,,
SENSOR,1789662436406,42166664495810,0.13459627,0.23060828,9.865907,-3.0543236E-4,-6.108647E-4,-3.0543236E-4,-60.750004,2.1750002,9.450001,,,,,,,,,,,,,,,,,,,,,,
SENSOR,1789662436424,42166674495810,0.13459627,0.23060828,9.865907,-3.0543236E-4,-6.108647E-4,-3.0543236E-4,-60.825,2.1000001,9.450001,,,,,,,,,,,,,,,,,,,,,,
SENSOR,1789662436502,42166764495810,0.13459627,0.23060828,9.865907,3.0543236E-4,6.108647E-4,3.0543236E-4,-60.825,2.1000001,9.450001,,,,,,,,,,,,,,,,,,,,,,
SENSOR,1789662436503,42166719364455,0.13579269,0.23090738,9.864711,3.0543236E-4,6.108647E-4,3.0543236E-4,-60.825,2.1000001,9.450001,,,,,,,,,,,,,,,,,,,,,,
SENSOR,1789662436528,42166774495810,0.13579269,0.23090738,9.864711,3.0543236E-4,6.108647E-4,3.0543236E-4,-60.525,2.1000001,9.225,,,,,,,,,,,,,,,,,,,,,,
SENSOR,1789662436607,42166823551539,0.13668999,0.23060828,9.865009,3.0543236E-4,6.108647E-4,3.0543236E-4,-60.525,2.1000001,9.225,,,,,,,,,,,,,,,,,,,,,,
SENSOR,1789662436608,42166864495810,0.13668999,0.23060828,9.865009,3.0543236E-4,6.108647E-4,-3.0543236E-4,-60.525,2.1000001,9.225,,,,,,,,,,,,,,,,,,,,,,
SENSOR,1789662436624,42166874495810,0.13668999,0.23060828,9.865009,3.0543236E-4,6.108647E-4,-3.0543236E-4,-60.975002,1.8750001,9.075001,,,,,,,,,,,,,,,,,,,,,,
SENSOR,1789662436701,42166964495810,0.13668999,0.23060828,9.865009,3.0543236E-4,-6.108647E-4,3.0543236E-4,-60.975002,1.8750001,9.075001,,,,,,,,,,,,,,,,,,,,,,
SENSOR,1789662436711,42166927738674,0.1363909,0.2318047,9.865009,3.0543236E-4,-6.108647E-4,3.0543236E-4,-60.975002,1.8750001,9.075001,,,,,,,,,,,,,,,,,,,,,,
SENSOR,1789662436729,42166974495810,0.1363909,0.2318047,9.865009,3.0543236E-4,-6.108647E-4,3.0543236E-4,-60.9,1.725,8.700001,,,,,,,,,,,,,,,,,,,,,,
SENSOR,1789662436805,42167064495810,0.1363909,0.2318047,9.865009,-9.162971E-4,-6.108647E-4,-1.5271618E-4,-60.9,1.725,8.700001,,,,,,,,,,,,,,,,,,,,,,
SENSOR,1789662436815,42167031925757,0.13668999,0.22971097,9.865907,-9.162971E-4,-6.108647E-4,-1.5271618E-4,-60.9,1.725,8.700001,,,,,,,,,,,,,,,,,,,,,,
SENSOR,1789662436824,42167074495810,0.13668999,0.22971097,9.865907,-9.162971E-4,-6.108647E-4,-1.5271618E-4,-60.45,2.25,7.9500003,,,,,,,,,,,,,,,,,,,,,,
SENSOR,1789662436901,42167164495810,0.13668999,0.22971097,9.865907,-9.162971E-4,6.108647E-4,3.0543236E-4,-60.45,2.25,7.9500003,,,,,,,,,,,,,,,,,,,,,,
GNSS,1789662436902,,,,,,,,,,,true,11.05530574,76.92709861,377.90020751953125,3.7900925,0.0,,97,41,,,,,,,,,,,,,
GNSS,1789662437000,,,,,,,,,,,true,11.05530687,76.92709832,377.7618408203125,3.7900925,0.0,,97,41,,,,,,,,,,,,,
SENSOR,1789662436922,42167136112841,0.13519448,0.22911277,9.863514,-9.162971E-4,6.108647E-4,3.0543236E-4,-60.45,2.25,7.9500003,,,,,,,,,,,,,,,,,,,,,,
SENSOR,1789662436928,42167174495810,0.13519448,0.22911277,9.863514,-9.162971E-4,6.108647E-4,3.0543236E-4,-60.300003,2.25,8.700001,,,,,,,,,,,,,,,,,,,,,,
SENSOR,1789662437006,42167264495810,0.13519448,0.22911277,9.863514,-9.162971E-4,0.0,-9.162971E-4,-60.300003,2.25,8.700001,,,,,,,,,,,,,,,,,,,,,,
SENSOR,1789662437025,42167240299924,0.13758731,0.22971097,9.862617,-9.162971E-4,0.0,-9.162971E-4,-60.300003,2.25,8.700001,,,,,,,,,,,,,,,,,,,,,,
SENSOR,1789662437025,42167274495810,0.13758731,0.22971097,9.862617,-9.162971E-4,0.0,-9.162971E-4,-61.125004,2.025,9.3,,,,,,,,,,,,,,,,,,,,,,
CELLULAR,1789662437096,,,,,,,,,,,,,,,,,,,true,NR,4298047490,405,869,,75,403,634080,-105,NR_SS_RSRP,4,
SENSOR,1789662437123,42167364495810,0.13758731,0.22971097,9.862617,3.0543236E-4,-6.108647E-4,-7.635809E-4,-61.125004,2.025,9.3,,,,,,,,,,,,,,,,,,,,,,
SENSOR,1789662437127,42167344487007,0.13519448,0.22941187,9.864711,3.0543236E-4,-6.108647E-4,-7.635809E-4,-61.125004,2.025,9.3,,,,,,,,,,,,,,,,,,,,,,
SENSOR,1789662437127,42167374495810,0.13519448,0.22941187,9.864711,3.0543236E-4,-6.108647E-4,-7.635809E-4,-60.825,2.025,9.0,,,,,,,,,,,,,,,,,,,,,,
SENSOR,1789662437206,42167464495810,0.13519448,0.22941187,9.864711,3.0543236E-4,-6.108647E-4,-3.0543236E-4,-60.825,2.025,9.0,,,,,,,,,,,,,,,,,,,,,,
SENSOR,1789662437224,42167474495810,0.13519448,0.22941187,9.864711,3.0543236E-4,-6.108647E-4,-3.0543236E-4,-61.125004,1.8000001,9.825001,,,,,,,,,,,,,,,,,,,,,,
SENSOR,1789662437231,42167448674091,0.13399807,0.23001008,9.865907,3.0543236E-4,-6.108647E-4,-3.0543236E-4,-61.125004,1.8000001,9.825001,,,,,,,,,,,,,,,,,,,,,,
SENSOR,1789662437310,42167564495810,0.13399807,0.23001008,9.865907,-7.635809E-4,-4.5814854E-4,3.0543236E-4,-61.125004,1.8000001,9.825001,,,,,,,,,,,,,,,,,,,,,,
SENSOR,1789662437327,42167574495810,0.13399807,0.23001008,9.865907,-7.635809E-4,-4.5814854E-4,3.0543236E-4,-60.750004,2.4,9.450001,,,,,,,,,,,,,,,,,,,,,,
SENSOR,1789662437335,42167552861174,0.13579269,0.23060828,9.865309,-7.635809E-4,-4.5814854E-4,3.0543236E-4,-60.750004,2.4,9.450001,,,,,,,,,,,,,,,,,,,,,,
SENSOR,1789662437404,42167664495810,0.13579269,0.23060828,9.865309,3.0543236E-4,6.108647E-4,-3.0543236E-4,-60.750004,2.4,9.450001,,,,,,,,,,,,,,,,,,,,,,
SENSOR,1789662437422,42167674495810,0.13579269,0.23060828,9.865309,3.0543236E-4,6.108647E-4,-3.0543236E-4,-60.525,2.1750002,7.5750003,,,,,,,,,,,,,,,,,,,,,,
SENSOR,1789662437441,42167657048205,0.13250256,0.2330011,9.865309,3.0543236E-4,6.108647E-4,-3.0543236E-4,-60.525,2.1750002,7.5750003,,,,,,,,,,,,,,,,,,,,,,
SENSOR,1789662437509,42167764495810,0.13250256,0.2330011,9.865309,-0.0018325942,-0.0045814854,-9.162971E-4,-60.525,2.1750002,7.5750003,,,,,,,,,,,,,,,,,,,,,,
SENSOR,1789662437526,42167774495810,0.13250256,0.2330011,9.865309,-0.0018325942,-0.0045814854,-9.162971E-4,-60.600002,1.95,8.85,,,,,,,,,,,,,,,,,,,,,,
SENSOR,1789662437543,42167761235289,0.13758731,0.22821546,9.861719,-0.0018325942,-0.0045814854,-9.162971E-4,-60.600002,1.95,8.85,,,,,,,,,,,,,,,,,,,,,,
SENSOR,1789662437604,42167864495810,0.13758731,0.22821546,9.861719,-1.5271618E-4,-0.0010690133,-4.5814854E-4,-60.600002,1.95,8.85,,,,,,,,,,,,,,,,,,,,,,
SENSOR,1789662437623,42167874495810,0.13758731,0.22821546,9.861719,-1.5271618E-4,-0.0010690133,-4.5814854E-4,-60.300003,1.8000001,9.225,,,,,,,,,,,,,,,,,,,,,,
SENSOR,1789662437647,42167865422320,0.1363909,0.23120649,9.862019,-1.5271618E-4,-0.0010690133,-4.5814854E-4,-60.300003,1.8000001,9.225,,,,,,,,,,,,,,,,,,,,,,
SENSOR,1789662437709,42167964495810,0.1363909,0.23120649,9.862019,3.0543236E-4,-4.5814854E-4,-9.162971E-4,-60.300003,1.8000001,9.225,,,,,,,,,,,,,,,,,,,,,,
SENSOR,1789662437726,42167974495810,0.1363909,0.23120649,9.862019,3.0543236E-4,-4.5814854E-4,-9.162971E-4,-60.975002,2.1750002,9.525001,,,,,,,,,,,,,,,,,,,,,,
SENSOR,1789662437751,42167969609351,0.1369891,0.22971097,9.866206,3.0543236E-4,-4.5814854E-4,-9.162971E-4,-60.975002,2.1750002,9.525001,,,,,,,,,,,,,,,,,,,,,,
SENSOR,1789662437804,42168064495810,0.1369891,0.22971097,9.866206,-4.5814854E-4,3.0543236E-4,-0.0,-60.975002,2.1750002,9.525001,,,,,,,,,,,,,,,,,,,,,,
SENSOR,1789662437821,42168074495810,0.1369891,0.22971097,9.866206,-4.5814854E-4,3.0543236E-4,-0.0,-61.050003,2.1000001,8.925,,,,,,,,,,,,,,,,,,,,,,
SENSOR,1789662437856,42168073796382,0.13519448,0.2222334,9.862916,-4.5814854E-4,3.0543236E-4,-0.0,-61.050003,2.1000001,8.925,,,,,,,,,,,,,,,,,,,,,,
GNSS,1789662437898,,,,,,,,,,,true,11.05530687,76.92709832,377.7618408203125,3.7900925,0.0,,97,42,,,,,,,,,,,,,
GNSS,1789662438000,,,,,,,,,,,true,11.05530811,76.92709882,377.9698486328125,3.7900925,0.0,,97,42,,,,,,,,,,,,,
SENSOR,1789662437910,42168164495810,0.13519448,0.2222334,9.862916,3.0543236E-4,6.108647E-4,-9.162971E-4,-61.050003,2.1000001,8.925,,,,,,,,,,,,,,,,,,,,,,
SENSOR,1789662437925,42168174495810,0.13519448,0.2222334,9.862916,3.0543236E-4,6.108647E-4,-9.162971E-4,-60.300003,2.1750002,8.700001,,,,,,,,,,,,,,,,,,,,,,
SENSOR,1789662437960,42168177983414,0.13489537,0.22821546,9.865608,3.0543236E-4,6.108647E-4,-9.162971E-4,-60.300003,2.1750002,8.700001,,,,,,,,,,,,,,,,,,,,,,
SENSOR,1789662438003,42168264495810,0.13489537,0.22821546,9.865608,3.0543236E-4,-6.108647E-4,-0.0,-60.300003,2.1750002,8.700001,,,,,,,,,,,,,,,,,,,,,,
SENSOR,1789662438021,42168274495810,0.13489537,0.22821546,9.865608,3.0543236E-4,-6.108647E-4,-0.0,-60.825,1.725,8.700001,,,,,,,,,,,,,,,,,,,,,,
SENSOR,1789662438064,42168282170445,0.13429718,0.23718855,9.867104,3.0543236E-4,-6.108647E-4,-0.0,-60.825,1.725,8.700001,,,,,,,,,,,,,,,,,,,,,,
SENSOR,1789662438107,42168364495810,0.13429718,0.23718855,9.867104,3.0543236E-4,-6.108647E-4,1.5271618E-4,-60.825,1.725,8.700001,,,,,,,,,,,,,,,,,,,,,,
CELLULAR,1789662438123,,,,,,,,,,,,,,,,,,,true,NR,4298047490,405,869,,75,403,634080,-105,NR_SS_RSRP,4,
SENSOR,1789662438138,42168374495810,0.13429718,0.23718855,9.867104,3.0543236E-4,-6.108647E-4,1.5271618E-4,-60.975002,1.8750001,8.775001,,,,,,,,,,,,,,,,,,,,,,
SENSOR,1789662438168,42168386357476,0.13429718,0.232702,9.864112,3.0543236E-4,-6.108647E-4,1.5271618E-4,-60.975002,1.8750001,8.775001,,,,,,,,,,,,,,,,,,,,,,
SENSOR,1789662438202,42168464495810,0.13429718,0.232702,9.864112,0.0012217294,6.108647E-4,-9.162971E-4,-60.975002,1.8750001,8.775001,,,,,,,,,,,,,,,,,,,,,,
SENSOR,1789662438229,42168474495810,0.13429718,0.232702,9.864112,0.0012217294,6.108647E-4,-9.162971E-4,-60.525,1.95,8.400001,,,,,,,,,,,,,,,,,,,,,,
SENSOR,1789662438272,42168490544455,0.13549358,0.2321038,9.864112,0.0012217294,6.108647E-4,-9.162971E-4,-60.525,1.95,8.400001,,,,,,,,,,,,,,,,,,,,,,
SENSOR,1789662438307,42168564495810,0.13549358,0.2321038,9.864112,3.0543236E-4,6.108647E-4,-9.162971E-4,-60.525,1.95,8.400001,,,,,,,,,,,,,,,,,,,,,,
SENSOR,1789662438325,42168574495810,0.13549358,0.2321038,9.864112,3.0543236E-4,6.108647E-4,-9.162971E-4,-60.9,1.8000001,9.675,,,,,,,,,,,,,,,,,,,,,,
SENSOR,1789662438376,42168594731487,0.13459627,0.23330021,9.867104,3.0543236E-4,6.108647E-4,-9.162971E-4,-60.9,1.8000001,9.675,,,,,,,,,,,,,,,,,,,,,,
SENSOR,1789662438403,42168664495810,0.13459627,0.23330021,9.867104,3.0543236E-4,6.108647E-4,3.0543236E-4,-60.9,1.8000001,9.675,,,,,,,,,,,,,,,,,,,,,,
SENSOR,1789662438429,42168674495810,0.13459627,0.23330021,9.867104,3.0543236E-4,6.108647E-4,3.0543236E-4,-60.525,2.025,9.375,,,,,,,,,,,,,,,,,,,,,,
SENSOR,1789662438481,42168698918466,0.13399807,0.23090738,9.864112,3.0543236E-4,6.108647E-4,3.0543236E-4,-60.525,2.025,9.375,,,,,,,,,,,,,,,,,,,,,,
SENSOR,1789662438508,42168764495810,0.13399807,0.23090738,9.864112,3.0543236E-4,-6.108647E-4,3.0543236E-4,-60.525,2.025,9.375,,,,,,,,,,,,,,,,,,,,,,
SENSOR,1789662438524,42168774495810,0.13399807,0.23090738,9.864112,3.0543236E-4,-6.108647E-4,3.0543236E-4,-61.2,2.325,9.75,,,,,,,,,,,,,,,,,,,,,,
SENSOR,1789662438587,42168803105445,0.13429718,0.23030917,9.862019,3.0543236E-4,-6.108647E-4,3.0543236E-4,-61.2,2.325,9.75,,,,,,,,,,,,,,,,,,,,,,
SENSOR,1789662438602,42168864495810,0.13429718,0.23030917,9.862019,3.0543236E-4,-3.0543236E-4,-6.108647E-4,-61.2,2.325,9.75,,,,,,,,,,,,,,,,,,,,,,
SENSOR,1789662438629,42168874495810,0.13429718,0.23030917,9.862019,3.0543236E-4,-3.0543236E-4,-6.108647E-4,-60.675003,2.1750002,9.675,,,,,,,,,,,,,,,,,,,,,,
SENSOR,1789662438689,42168907292424,0.13459627,0.2318047,9.865907,3.0543236E-4,-3.0543236E-4,-6.108647E-4,-60.675003,2.1750002,9.675,,,,,,,,,,,,,,,,,,,,,,
SENSOR,1789662438706,42168964495810,0.13459627,0.2318047,9.865907,3.0543236E-4,6.108647E-4,-0.0,-60.675003,2.1750002,9.675,,,,,,,,,,,,,,,,,,,,,,
SENSOR,1789662438725,42168974495810,0.13459627,0.2318047,9.865907,3.0543236E-4,6.108647E-4,-0.0,-60.975002,1.8000001,9.075001,,,,,,,,,,,,,,,,,,,,,,
SENSOR,1789662438793,42169011479403,0.13549358,0.23120649,9.865009,3.0543236E-4,6.108647E-4,-0.0,-60.975002,1.8000001,9.075001,,,,,,,,,,,,,,,,,,,,,,
SENSOR,1789662438802,42169064495810,0.13549358,0.23120649,9.865009,-6.108647E-4,6.108647E-4,1.5271618E-4,-60.975002,1.8000001,9.075001,,,,,,,,,,,,,,,,,,,,,,
SENSOR,1789662438828,42169074495810,0.13549358,0.23120649,9.865009,-6.108647E-4,6.108647E-4,1.5271618E-4,-61.050003,2.1000001,8.925,,,,,,,,,,,,,,,,,,,,,,
SENSOR,1789662438897,42169115666330,0.13310076,0.23120649,9.865309,-6.108647E-4,6.108647E-4,1.5271618E-4,-61.050003,2.1000001,8.925,,,,,,,,,,,,,,,,,,,,,,
GNSS,1789662438899,,,,,,,,,,,true,11.05530811,76.92709882,377.9698486328125,3.7900925,0.0,,97,42,,,,,,,,,,,,,
SENSOR,1789662438911,42169164495810,0.13310076,0.23120649,9.865309,3.0543236E-4,-6.108647E-4,3.0543236E-4,-61.050003,2.1000001,8.925,,,,,,,,,,,,,,,,,,,,,,
GNSS,1789662439000,,,,,,,,,,,true,11.05530859,76.92709963,378.2315673828125,3.7900925,0.0,,97,42,,,,,,,,,,,,,
SENSOR,1789662438924,42169174495810,0.13310076,0.23120649,9.865309,3.0543236E-4,-6.108647E-4,3.0543236E-4,-60.9,1.725,8.700001,,,,,,,,,,,,,,,,,,,,,,
SENSOR,1789662439002,42169264495810,0.13310076,0.23120649,9.865309,-7.635809E-4,6.108647E-4,3.0543236E-4,-60.9,1.725,8.700001,,,,,,,,,,,,,,,,,,,,,,
SENSOR,1789662439003,42169219853310,0.13549358,0.2330011,9.863514,-7.635809E-4,6.108647E-4,3.0543236E-4,-60.9,1.725,8.700001,,,,,,,,,,,,,,,,,,,,,,
SENSOR,1789662439028,42169274495810,0.13549358,0.2330011,9.863514,-7.635809E-4,6.108647E-4,3.0543236E-4,-60.9,1.8750001,8.925,,,,,,,,,,,,,,,,,,,,,,
SENSOR,1789662439107,42169324040237,0.13489537,0.2335993,9.861121,-7.635809E-4,6.108647E-4,3.0543236E-4,-60.9,1.8750001,8.925,,,,,,,,,,,,,,,,,,,,,,
SENSOR,1789662439107,42169364495810,0.13489537,0.2335993,9.861121,-4.5814854E-4,6.108647E-4,-9.162971E-4,-60.9,1.8750001,8.925,,,,,,,,,,,,,,,,,,,,,,
SENSOR,1789662439124,42169374495810,0.13489537,0.2335993,9.861121,-4.5814854E-4,6.108647E-4,-9.162971E-4,-60.9,1.6500001,9.525001,,,,,,,,,,,,,,,,,,,,,,
CELLULAR,1789662439138,,,,,,,,,,,,,,,,,,,true,NR,4298047490,405,869,,75,403,634080,-105,NR_SS_RSRP,4,
SENSOR,1789662439202,42169464495810,0.13489537,0.2335993,9.861121,-7.635809E-4,-6.108647E-4,3.0543236E-4,-60.9,1.6500001,9.525001,,,,,,,,,,,,,,,,,,,,,,
SENSOR,1789662439210,42169428227164,0.13579269,0.2324029,9.862019,-7.635809E-4,-6.108647E-4,3.0543236E-4,-60.9,1.6500001,9.525001,,,,,,,,,,,,,,,,,,,,,,
SENSOR,1789662439228,42169474495810,0.13579269,0.2324029,9.862019,-7.635809E-4,-6.108647E-4,3.0543236E-4,-60.300003,2.025,8.325001,,,,,,,,,,,,,,,,,,,,,,
SENSOR,1789662439307,42169564495810,0.13579269,0.2324029,9.862019,3.0543236E-4,-6.108647E-4,3.0543236E-4,-60.300003,2.025,8.325001,,,,,,,,,,,,,,,,,,,,,,
SENSOR,1789662439315,42169532414091,0.13519448,0.2330011,9.864112,3.0543236E-4,-6.108647E-4,3.0543236E-4,-60.300003,2.025,8.325001,,,,,,,,,,,,,,,,,,,,,,
SENSOR,1789662439326,42169574495810,0.13519448,0.2330011,9.864112,3.0543236E-4,-6.108647E-4,3.0543236E-4,-60.825,1.725,8.925,,,,,,,,,,,,,,,,,,,,,,
SENSOR,1789662439402,42169664495810,0.13519448,0.2330011,9.864112,3.0543236E-4,-6.108647E-4,-9.162971E-4,-60.825,1.725,8.925,,,,,,,,,,,,,,,,,,,,,,
SENSOR,1789662439419,42169636601018,0.13579269,0.2321038,9.867702,3.0543236E-4,-6.108647E-4,-9.162971E-4,-60.825,1.725,8.925,,,,,,,,,,,,,,,,,,,,,,
SENSOR,1789662439428,42169674495810,0.13579269,0.2321038,9.867702,3.0543236E-4,-6.108647E-4,-9.162971E-4,-61.2,1.95,9.6,,,,,,,,,,,,,,,,,,,,,,
SENSOR,1789662439506,42169764495810,0.13579269,0.2321038,9.867702,-3.0543236E-4,-6.108647E-4,-1.5271618E-4,-61.2,1.95,9.6,,,,,,,,,,,,,,,,,,,,,,
SENSOR,1789662439526,42169740787893,0.13280165,0.23120649,9.865608,-3.0543236E-4,-6.108647E-4,-1.5271618E-4,-61.2,1.95,9.6,,,,,,,,,,,,,,,,,,,,,,
SENSOR,1789662439526,42169774495810,0.13280165,0.23120649,9.865608,-3.0543236E-4,-6.108647E-4,-1.5271618E-4,-60.600002,1.6500001,8.400001,,,,,,,,,,,,,,,,,,,,,,
SENSOR,1789662439601,42169864495810,0.13280165,0.23120649,9.865608,3.0543236E-4,6.108647E-4,-7.635809E-4,-60.600002,1.6500001,8.400001,,,,,,,,,,,,,,,,,,,,,,
SENSOR,1789662439628,42169874495810,0.13280165,0.23120649,9.865608,3.0543236E-4,6.108647E-4,-7.635809E-4,-61.425003,1.8750001,9.525001,,,,,,,,,,,,,,,,,,,,,,
SENSOR,1789662439628,42169844974820,0.1363909,0.2324029,9.866206,3.0543236E-4,6.108647E-4,-7.635809E-4,-61.425003,1.8750001,9.525001,,,,,,,,,,,,,,,,,,,,,,
SENSOR,1789662439707,42169964495810,0.1363909,0.2324029,9.866206,3.0543236E-4,-6.108647E-4,-3.0543236E-4,-61.425003,1.8750001,9.525001,,,,,,,,,,,,,,,,,,,,,,
SENSOR,1789662439723,42169974495810,0.1363909,0.2324029,9.866206,3.0543236E-4,-6.108647E-4,-3.0543236E-4,-60.9,2.25,8.925,,,,,,,,,,,,,,,,,,,,,,
SENSOR,1789662439732,42169949161695,0.13429718,0.2321038,9.865907,3.0543236E-4,-6.108647E-4,-3.0543236E-4,-60.9,2.25,8.925,,,,,,,,,,,,,,,,,,,,,,
SENSOR,1789662439810,42170064495810,0.13429718,0.2321038,9.865907,3.0543236E-4,-6.108647E-4,3.0543236E-4,-60.9,2.25,8.925,,,,,,,,,,,,,,,,,,,,,,
SENSOR,1789662439827,42170074495810,0.13429718,0.2321038,9.865907,3.0543236E-4,-6.108647E-4,3.0543236E-4,-60.300003,2.025,8.85,,,,,,,,,,,,,,,,,,,,,,
SENSOR,1789662439836,42170053348570,0.13579269,0.2324029,9.865608,3.0543236E-4,-6.108647E-4,3.0543236E-4,-60.300003,2.025,8.85,,,,,,,,,,,,,,,,,,,,,,
GNSS,1789662439904,,,,,,,,,,,true,11.05530859,76.92709963,378.2315673828125,3.7900925,0.0,,97,43,,,,,,,,,,,,,
SENSOR,1789662439918,42170164495810,0.13579269,0.2324029,9.865608,-1.5271618E-4,1.5271618E-4,3.0543236E-4,-60.300003,2.025,8.85,,,,,,,,,,,,,,,,,,,,,,
GNSS,1789662440000,,,,,,,,,,,true,11.05530921,76.9270995,378.10638427734375,3.7900925,0.0,,97,43,,,,,,,,,,,,,
SENSOR,1789662439923,42170174495810,0.13579269,0.2324029,9.865608,-1.5271618E-4,1.5271618E-4,3.0543236E-4,-60.600002,2.025,8.475,,,,,,,,,,,,,,,,,,,,,,
SENSOR,1789662439940,42170157535393,0.13489537,0.23389842,9.862617,-1.5271618E-4,1.5271618E-4,3.0543236E-4,-60.600002,2.025,8.475,,,,,,,,,,,,,,,,,,,,,,
SENSOR,1789662440010,42170264495810,0.13489537,0.23389842,9.862617,3.0543236E-4,6.108647E-4,3.0543236E-4,-60.600002,2.025,8.475,,,,,,,,,,,,,,,,,,,,,,
SENSOR,1789662440027,42170274495810,0.13489537,0.23389842,9.862617,3.0543236E-4,6.108647E-4,3.0543236E-4,-60.675003,2.1000001,9.525001,,,,,,,,,,,,,,,,,,,,,,
SENSOR,1789662440045,42170261722268,0.13519448,0.23001008,9.863514,3.0543236E-4,6.108647E-4,3.0543236E-4,-60.675003,2.1000001,9.525001,,,,,,,,,,,,,,,,,,,,,,
SENSOR,1789662440106,42170364495810,0.13519448,0.23001008,9.863514,3.0543236E-4,6.108647E-4,-1.5271618E-4,-60.675003,2.1000001,9.525001,,,,,,,,,,,,,,,,,,,,,,
SENSOR,1789662440123,42170374495810,0.13519448,0.23001008,9.863514,3.0543236E-4,6.108647E-4,-1.5271618E-4,-61.050003,2.4,9.075001,,,,,,,,,,,,,,,,,,,,,,
SENSOR,1789662440151,42170365909091,0.13519448,0.23389842,9.865907,3.0543236E-4,6.108647E-4,-1.5271618E-4,-61.050003,2.4,9.075001,,,,,,,,,,,,,,,,,,,,,,
CELLULAR,1789662440153,,,,,,,,,,,,,,,,,,,true,NR,4298047490,405,869,,75,403,634080,-105,NR_SS_RSRP,4,
SENSOR,1789662440209,42170464495810,0.13519448,0.23389842,9.865907,3.0543236E-4,-6.108647E-4,-9.162971E-4,-61.050003,2.4,9.075001,,,,,,,,,,,,,,,,,,,,,,
SENSOR,1789662440227,42170474495810,0.13519448,0.23389842,9.865907,3.0543236E-4,-6.108647E-4,-9.162971E-4,-61.050003,2.325,9.450001,,,,,,,,,,,,,,,,,,,,,,
SENSOR,1789662440253,42170470095914,0.13459627,0.2321038,9.865009,3.0543236E-4,-6.108647E-4,-9.162971E-4,-61.050003,2.325,9.450001,,,,,,,,,,,,,,,,,,,,,,
SENSOR,1789662440305,42170564495810,0.13459627,0.2321038,9.865009,3.0543236E-4,0.0013744456,-1.5271618E-4,-61.050003,2.325,9.450001,,,,,,,,,,,,,,,,,,,,,,
SENSOR,1789662440323,42170574495810,0.13459627,0.2321038,9.865009,3.0543236E-4,0.0013744456,-1.5271618E-4,-60.825,2.1000001,9.675,,,,,,,,,,,,,,,,,,,,,,
SENSOR,1789662440356,42170574282737,0.13519448,0.22971097,9.864711,3.0543236E-4,0.0013744456,-1.5271618E-4,-60.825,2.1000001,9.675,,,,,,,,,,,,,,,,,,,,,,
SENSOR,1789662440409,42170664495810,0.13519448,0.22971097,9.864711,3.0543236E-4,6.108647E-4,3.0543236E-4,-60.825,2.1000001,9.675,,,,,,,,,,,,,,,,,,,,,,
SENSOR,1789662440427,42170674495810,0.13519448,0.22971097,9.864711,3.0543236E-4,6.108647E-4,3.0543236E-4,-61.350002,1.8750001,8.775001,,,,,,,,,,,,,,,,,,,,,,
SENSOR,1789662440460,42170678469560,0.13459627,0.2330011,9.866505,3.0543236E-4,6.108647E-4,3.0543236E-4,-61.350002,1.8750001,8.775001,,,,,,,,,,,,,,,,,,,,,,
SENSOR,1789662440505,42170764495810,0.13459627,0.2330011,9.866505,3.0543236E-4,-1.5271618E-4,3.0543236E-4,-61.350002,1.8750001,8.775001,,,,,,,,,,,,,,,,,,,,,,
SENSOR,1789662440524,42170774495810,0.13459627,0.2330011,9.866505,3.0543236E-4,-1.5271618E-4,3.0543236E-4,-60.9,1.8750001,8.775001,,,,,,,,,,,,,,,,,,,,,,
SENSOR,1789662440566,42170782656382,0.13519448,0.2324029,9.864112,3.0543236E-4,-1.5271618E-4,3.0543236E-4,-60.9,1.8750001,8.775001,,,,,,,,,,,,,,,,,,,,,,
SENSOR,1789662440608,42170864495810,0.13519448,0.2324029,9.864112,-9.162971E-4,-6.108647E-4,3.0543236E-4,-60.9,1.8750001,8.775001,,,,,,,,,,,,,,,,,,,,,,
SENSOR,1789662440627,42170874495810,0.13519448,0.2324029,9.864112,-9.162971E-4,-6.108647E-4,3.0543236E-4,-61.125004,2.025,9.3,,,,,,,,,,,,,,,,,,,,,,
SENSOR,1789662440669,42170886843153,0.13399807,0.22881366,9.863514,-9.162971E-4,-6.108647E-4,3.0543236E-4,-61.125004,2.025,9.3,,,,,,,,,,,,,,,,,,,,,,
SENSOR,1789662440704,42170964495810,0.13399807,0.22881366,9.863514,-9.162971E-4,-6.108647E-4,3.0543236E-4,-61.125004,2.025,9.3,,,,,,,,,,,,,,,,,,,,,,
SENSOR,1789662440721,42170974495810,0.13399807,0.22881366,9.863514,-9.162971E-4,-6.108647E-4,3.0543236E-4,-60.825,1.8000001,9.3,,,,,,,,,,,,,,,,,,,,,,
SENSOR,1789662440774,42170991029924,0.13399807,0.24646074,9.866206,-9.162971E-4,-6.108647E-4,3.0543236E-4,-60.825,1.8000001,9.3,,,,,,,,,,,,,,,,,,,,,,
SENSOR,1789662440808,42171064495810,0.13399807,0.24646074,9.866206,-6.108647E-4,-3.0543236E-4,3.0543236E-4,-60.825,1.8000001,9.3,,,,,,,,,,,,,,,,,,,,,,
SENSOR,1789662440826,42171074495810,0.13399807,0.24646074,9.866206,-6.108647E-4,-3.0543236E-4,3.0543236E-4,-60.675003,2.25,9.0,,,,,,,,,,,,,,,,,,,,,,
SENSOR,1789662440878,42171095216695,0.13758731,0.21505493,9.859925,-6.108647E-4,-3.0543236E-4,3.0543236E-4,-60.675003,2.25,9.0,,,,,,,,,,,,,,,,,,,,,,
GNSS,1789662440903,,,,,,,,,,,true,11.05530921,76.9270995,378.10638427734375,3.7900925,0.0,,97,43,,,,,,,,,,,,,
SENSOR,1789662440918,42171164495810,0.13758731,0.21505493,9.859925,3.0543236E-4,-1.5271618E-4,-9.162971E-4,-60.675003,2.25,9.0,,,,,,,,,,,,,,,,,,,,,,
GNSS,1789662441000,,,,,,,,,,,true,11.05531036,76.92710027,378.1494140625,3.7900925,0.0,,97,43,,,,,,,,,,,,,
SENSOR,1789662440930,42171174495810,0.13758731,0.21505493,9.859925,3.0543236E-4,-1.5271618E-4,-9.162971E-4,-60.300003,2.025,7.8750005,,,,,,,,,,,,,,,,,,,,,,
SENSOR,1789662440983,42171199403466,0.13280165,0.23629123,9.865608,3.0543236E-4,-1.5271618E-4,-9.162971E-4,-60.300003,2.025,7.8750005,,,,,,,,,,,,,,,,,,,,,,
SENSOR,1789662441008,42171264495810,0.13280165,0.23629123,9.865608,-9.162971E-4,-7.635809E-4,3.0543236E-4,-60.300003,2.025,7.8750005,,,,,,,,,,,,,,,,,,,,,,
SENSOR,1789662441028,42171274495810,0.13280165,0.23629123,9.865608,-9.162971E-4,-7.635809E-4,3.0543236E-4,-60.675003,2.1000001,8.475,,,,,,,,,,,,,,,,,,,,,,
SENSOR,1789662441086,42171303590185,0.13310076,0.22911277,9.864711,-9.162971E-4,-7.635809E-4,3.0543236E-4,-60.675003,2.1000001,8.475,,,,,,,,,,,,,,,,,,,,,,
SENSOR,1789662441103,42171364495810,0.13310076,0.22911277,9.864711,3.0543236E-4,0.0018325942,3.0543236E-4,-60.675003,2.1000001,8.475,,,,,,,,,,,,,,,,,,,,,,
SENSOR,1789662441130,42171374495810,0.13310076,0.22911277,9.864711,3.0543236E-4,0.0018325942,3.0543236E-4,-60.825,1.8750001,9.0,,,,,,,,,,,,,,,,,,,,,,
CELLULAR,1789662441173,,,,,,,,,,,,,,,,,,,true,NR,4298047490,405,869,,75,403,634080,-105,NR_SS_RSRP,4,
SENSOR,1789662441195,42171407776903,0.13280165,0.23150559,9.865309,3.0543236E-4,0.0018325942,3.0543236E-4,-60.825,1.8750001,9.0,,,,,,,,,,,,,,,,,,,,,,
SENSOR,1789662441208,42171464495810,0.13280165,0.23150559,9.865309,-0.0012217294,-0.0015271618,3.0543236E-4,-60.825,1.8750001,9.0,,,,,,,,,,,,,,,,,,,,,,
SENSOR,1789662441225,42171474495810,0.13280165,0.23150559,9.865309,-0.0012217294,-0.0015271618,3.0543236E-4,-60.525,2.1000001,8.85,,,,,,,,,,,,,,,,,,,,,,
SENSOR,1789662441294,42171511963622,0.13489537,0.22941187,9.865907,-0.0012217294,-0.0015271618,3.0543236E-4,-60.525,2.1000001,8.85,,,,,,,,,,,,,,,,,,,,,,
SENSOR,1789662441303,42171564495810,0.13489537,0.22941187,9.865907,-6.108647E-4,-0.0012217294,-9.162971E-4,-60.525,2.1000001,8.85,,,,,,,,,,,,,,,,,,,,,,
SENSOR,1789662441330,42171574495810,0.13489537,0.22941187,9.865907,-6.108647E-4,-0.0012217294,-9.162971E-4,-61.125004,1.8750001,9.3,,,,,,,,,,,,,,,,,,,,,,
SENSOR,1789662441399,42171616150341,0.20638095,0.20249261,9.867104,-6.108647E-4,-0.0012217294,-9.162971E-4,-61.125004,1.8750001,9.3,,,,,,,,,,,,,,,,,,,,,,
SENSOR,1789662441407,42171664495810,0.20638095,0.20249261,9.867104,0.002596175,0.0030543236,-0.116064295,-61.125004,1.8750001,9.3,,,,,,,,,,,,,,,,,,,,,,
SENSOR,1789662441424,42171674495810,0.20638095,0.20249261,9.867104,0.002596175,0.0030543236,-0.116064295,-61.050003,2.1000001,9.225,,,,,,,,,,,,,,,,,,,,,,
SENSOR,1789662441503,42171764495810,0.20638095,0.20249261,9.867104,0.23716822,0.018020509,0.5833758,-61.050003,2.1000001,9.225,,,,,,,,,,,,,,,,,,,,,,
SENSOR,1789662441505,42171720337060,-0.9921241,0.20727827,10.08485,0.23716822,0.018020509,0.5833758,-61.050003,2.1000001,9.225,,,,,,,,,,,,,,,,,,,,,,
SENSOR,1789662441529,42171774495810,-0.9921241,0.20727827,10.08485,0.23716822,0.018020509,0.5833758,-60.45,3.15,9.450001,,,,,,,,,,,,,,,,,,,,,,
SENSOR,1789662441609,42171864495810,-0.9921241,0.20727827,10.08485,1.2266164,1.1887428,0.115148,-60.45,3.15,9.450001,,,,,,,,,,,,,,,,,,,,,,
SENSOR,1789662441609,42171824523778,1.1922239,0.46121657,11.323136,1.2266164,1.1887428,0.115148,-60.45,3.15,9.450001,,,,,,,,,,,,,,,,,,,,,,
SENSOR,1789662441625,42171874495810,1.1922239,0.46121657,11.323136,1.2266164,1.1887428,0.115148,-60.825,6.6000004,5.25,,,,,,,,,,,,,,,,,,,,,,
SENSOR,1789662441702,42171964495810,1.1922239,0.46121657,11.323136,0.8747583,1.5986329,-0.97081673,-60.825,6.6000004,5.25,,,,,,,,,,,,,,,,,,,,,,
SENSOR,1789662441711,42171928710445,0.360718,1.5122639,9.169894,0.8747583,1.5986329,-0.97081673,-60.825,6.6000004,5.25,,,,,,,,,,,,,,,,,,,,,,
SENSOR,1789662441728,42171974495810,0.360718,1.5122639,9.169894,0.8747583,1.5986329,-0.97081673,-60.375004,-0.75,-6.3,,,,,,,,,,,,,,,,,,,,,,
SENSOR,1789662441806,42172064495810,0.360718,1.5122639,9.169894,0.30802855,1.3897172,-0.61987495,-60.375004,-0.75,-6.3,,,,,,,,,,,,,,,,,,,,,,
SENSOR,1789662441815,42172032897112,-2.981457,2.295016,7.9091763,0.30802855,1.3897172,-0.61987495,-60.375004,-0.75,-6.3,,,,,,,,,,,,,,,,,,,,,,
SENSOR,1789662441825,42172074495810,-2.981457,2.295016,7.9091763,0.30802855,1.3897172,-0.61987495,-54.825,-9.3,-20.25,,,,,,,,,,,,,,,,,,,,,,
GNSS,1789662441899,,,,,,,,,,,true,11.05531036,76.92710027,378.1494140625,3.7900925,0.0,,97,43,,,,,,,,,,,,,
SENSOR,1789662441913,42172164495810,-2.981457,2.295016,7.9091763,0.63682646,0.8654426,-0.54183704,-54.825,-9.3,-20.25,,,,,,,,,,,,,,,,,,,,,,
GNSS,1789662442000,,,,,,,,,,,true,11.05531029,76.92710055,378.205810546875,3.7900925,0.0,,97,43,,,,,,,,,,,,,
SENSOR,1789662441920,42172137083778,-3.790231,2.4634109,9.467502,0.63682646,0.8654426,-0.54183704,-54.825,-9.3,-20.25,,,,,,,,,,,,,,,,,,,,,,
SENSOR,1789662441927,42172174495810,-3.790231,2.4634109,9.467502,0.63682646,0.8654426,-0.54183704,-50.325,-15.150001,-24.375002,,,,,,,,,,,,,,,,,,,,,,
SENSOR,1789662442007,42172264495810,-3.790231,2.4634109,9.467502,-0.57039493,-0.06566796,-0.58643013,-50.325,-15.150001,-24.375002,,,,,,,,,,,,,,,,,,,,,,
SENSOR,1789662442024,42172274495810,-3.790231,2.4634109,9.467502,-0.57039493,-0.06566796,-0.58643013,-46.575,-20.325,-25.2,,,,,,,,,,,,,,,,,,,,,,
SENSOR,1789662442024,42172241270393,-5.953941,3.0580273,8.160124,-0.57039493,-0.06566796,-0.58643013,-46.575,-20.325,-25.2,,,,,,,,,,,,,,,,,,,,,,
SENSOR,1789662442102,42172364495810,-5.953941,3.0580273,8.160124,0.99341875,-1.2434151,1.2846485,-46.575,-20.325,-25.2,,,,,,,,,,,,,,,,,,,,,,
SENSOR,1789662442128,42172345457060,-7.1066833,1.8514465,9.563813,0.99341875,-1.2434151,1.2846485,-46.575,-20.325,-25.2,,,,,,,,,,,,,,,,,,,,,,
SENSOR,1789662442128,42172374495810,-7.1066833,1.8514465,9.563813,0.99341875,-1.2434151,1.2846485,-50.250004,-18.45,-20.1,,,,,,,,,,,,,,,,,,,,,,
CELLULAR,1789662442195,,,,,,,,,,,,,,,,,,,true,NR,4298047490,405,869,,75,403,634080,-105,NR_SS_RSRP,4,
SENSOR,1789662442215,42172464495810,-7.1066833,1.8514465,9.563813,1.0496184,0.161421,1.1888955,-50.250004,-18.45,-20.1,,,,,,,,,,,,,,,,,,,,,,
SENSOR,1789662442223,42172474495810,-7.1066833,1.8514465,9.563813,1.0496184,0.161421,1.1888955,-59.175003,-5.4750004,-35.7,,,,,,,,,,,,,,,,,,,,,,
SENSOR,1789662442232,42172449643674,-3.4666018,3.1109686,7.527521,1.0496184,0.161421,1.1888955,-59.175003,-5.4750004,-35.7,,,,,,,,,,,,,,,,,,,,,,
SENSOR,1789662442302,42172564495810,-3.4666018,3.1109686,7.527521,-0.16401717,-0.828638,0.7741183,-59.175003,-5.4750004,-35.7,,,,,,,,,,,,,,,,,,,,,,
SENSOR,1789662442328,42172574495810,-3.4666018,3.1109686,7.527521,-0.16401717,-0.828638,0.7741183,-59.250004,-0.52500004,-33.45,,,,,,,,,,,,,,,,,,,,,,
SENSOR,1789662442336,42172553830289,-3.9077785,4.368098,7.862516,-0.16401717,-0.828638,0.7741183,-59.250004,-0.52500004,-33.45,,,,,,,,,,,,,,,,,,,,,,
SENSOR,1789662442407,42172664495810,-3.9077785,4.368098,7.862516,-0.33673918,-0.695164,1.173013,-59.250004,-0.52500004,-33.45,,,,,,,,,,,,,,,,,,,,,,
SENSOR,1789662442424,42172674495810,-3.9077785,4.368098,7.862516,-0.33673918,-0.695164,1.173013,-59.7,7.275,-29.325,,,,,,,,,,,,,,,,,,,,,,
SENSOR,1789662442440,42172658016903,-2.9506495,4.252644,7.451848,-0.33673918,-0.695164,1.173013,-59.7,7.275,-29.325,,,,,,,,,,,,,,,,,,,,,,
SENSOR,1789662442501,42172764495810,-2.9506495,4.252644,7.451848,-0.9230166,-0.4372264,1.9737039,-59.7,7.275,-29.325,,,,,,,,,,,,,,,,,,,,,,
SENSOR,1789662442528,42172774495810,-2.9506495,4.252644,7.451848,-0.9230166,-0.4372264,1.9737039,-56.775,16.2,-26.7,,,,,,,,,,,,,,,,,,,,,,
SENSOR,1789662442551,42172762203518,-1.7679968,3.662215,7.6495547,-0.9230166,-0.4372264,1.9737039,-56.775,16.2,-26.7,,,,,,,,,,,,,,,,,,,,,,
SENSOR,1789662442606,42172864495810,-1.7679968,3.662215,7.6495547,0.34773475,0.9410371,1.9727876,-56.775,16.2,-26.7,,,,,,,,,,,,,,,,,,,,,,
SENSOR,1789662442623,42172874495810,-1.7679968,3.662215,7.6495547,0.34773475,0.9410371,1.9727876,-48.45,30.45,-24.525002,,,,,,,,,,,,,,,,,,,,,,
SENSOR,1789662442651,42172866390132,0.20937198,3.0514472,9.3867445,0.34773475,0.9410371,1.9727876,-48.45,30.45,-24.525002,,,,,,,,,,,,,,,,,,,,,,
SENSOR,1789662442709,42172964495810,0.20937198,3.0514472,9.3867445,0.46349362,1.0102175,1.1090249,-48.45,30.45,-24.525002,,,,,,,,,,,,,,,,,,,,,,
SENSOR,1789662442728,42172974495810,0.20937198,3.0514472,9.3867445,0.46349362,1.0102175,1.1090249,-42.15,36.225002,-21.6,,,,,,,,,,,,,,,,,,,,,,
SENSOR,1789662442752,42172970576695,0.8659027,3.6026936,9.2126665,0.46349362,1.0102175,1.1090249,-42.15,36.225002,-21.6,,,,,,,,,,,,,,,,,,,,,,
SENSOR,1789662442806,42173064495810,0.8659027,3.6026936,9.2126665,-0.028710641,0.5661189,0.7434224,-42.15,36.225002,-21.6,,,,,,,,,,,,,,,,,,,,,,
SENSOR,1789662442823,42173074495810,0.8659027,3.6026936,9.2126665,-0.028710641,0.5661189,0.7434224,-39.825,37.2,-20.025002,,,,,,,,,,,,,,,,,,,,,,
SENSOR,1789662442857,42173074763257,0.021535404,4.557131,8.310572,-0.028710641,0.5661189,0.7434224,-39.825,37.2,-20.025002,,,,,,,,,,,,,,,,,,,,,,
GNSS,1789662442899,,,,,,,,,,,true,11.05531029,76.92710055,378.205810546875,3.7900925,0.0,,97,43,,,,,,,,,,,,,
SENSOR,1789662442911,42173164495810,0.021535404,4.557131,8.310572,-0.37430736,2.0198243,1.1665989,-39.825,37.2,-20.025002,,,,,,,,,,,,,,,,,,,,,,
GNSS,1789662443000,,,,,,,,,,,true,11.05530955,76.92710155,378.3358154296875,3.7900925,0.0,,97,43,,,,,,,,,,,,,
SENSOR,1789662442926,42173174495810,0.021535404,4.557131,8.310572,-0.37430736,2.0198243,1.1665989,-37.275,38.25,-21.45,,,,,,,,,,,,,,,,,,,,,,
SENSOR,1789662442961,42173178949820,-0.09212367,3.3149567,9.017053,-0.37430736,2.0198243,1.1665989,-37.275,38.25,-21.45,,,,,,,,,,,,,,,,,,,,,,
SENSOR,1789662443005,42173264495810,-0.09212367,3.3149567,9.017053,-0.80023277,0.025198169,0.10903935,-37.275,38.25,-21.45,,,,,,,,,,,,,,,,,,,,,,
SENSOR,1789662443024,42173274495810,-0.09212367,3.3149567,9.017053,-0.80023277,0.025198169,0.10903935,-37.050003,40.125,-17.475,,,,,,,,,,,,,,,,,,,,,,
SENSOR,1789662443065,42173283136382,-0.18843478,2.9108686,8.919845,-0.80023277,0.025198169,0.10903935,-37.050003,40.125,-17.475,,,,,,,,,,,,,,,,,,,,,,
SENSOR,1789662443110,42173364495810,-0.18843478,2.9108686,8.919845,-1.0070105,0.60750496,0.4520399,-37.050003,40.125,-17.475,,,,,,,,,,,,,,,,,,,,,,
SENSOR,1789662443127,42173374495810,-0.18843478,2.9108686,8.919845,-1.0070105,0.60750496,0.4520399,-33.675003,40.5,-15.150001,,,,,,,,,,,,,,,,,,,,,,
SENSOR,1789662443170,42173387322893,0.22462623,2.2552354,9.42174,-1.0070105,0.60750496,0.4520399,-33.675003,40.5,-15.150001,,,,,,,,,,,,,,,,,,,,,,
SENSOR,1789662443204,42173464495810,0.22462623,2.2552354,9.42174,-0.94164795,-0.2568686,0.05635227,-33.675003,40.5,-15.150001,,,,,,,,,,,,,,,,,,,,,,
CELLULAR,1789662443215,,,,,,,,,,,,,,,,,,,true,NR,4298047490,405,869,,75,403,634080,-105,NR_SS_RSRP,4,
SENSOR,1789662443234,42173474495810,0.22462623,2.2552354,9.42174,-0.94164795,-0.2568686,0.05635227,-32.100002,39.825,-9.075001,,,,,,,,,,,,,,,,,,,,,,
SENSOR,1789662443274,42173491509455,-0.74865437,2.528017,12.176177,-0.94164795,-0.2568686,0.05635227,-32.100002,39.825,-9.075001,,,,,,,,,,,,,,,,,,,,,,
SENSOR,1789662443308,42173564495810,-0.74865437,2.528017,12.176177,2.5584543,1.9491166,0.4059196,-32.100002,39.825,-9.075001,,,,,,,,,,,,,,,,,,,,,,
SENSOR,1789662443327,42173574495810,-0.74865437,2.528017,12.176177,2.5584543,1.9491166,0.4059196,-31.125002,38.175003,-10.05,,,,,,,,,,,,,,,,,,,,,,
SENSOR,1789662443378,42173595695966,-3.181856,6.538986,10.097712,2.5584543,1.9491166,0.4059196,-31.125002,38.175003,-10.05,,,,,,,,,,,,,,,,,,,,,,
SENSOR,1789662443404,42173664495810,-3.181856,6.538986,10.097712,4.2377214,6.9279695,1.9428552,-31.125002,38.175003,-10.05,,,,,,,,,,,,,,,,,,,,,,
SENSOR,1789662443422,42173674495810,-3.181856,6.538986,10.097712,4.2377214,6.9279695,1.9428552,-12.525001,34.800003,-32.100002,,,,,,,,,,,,,,,,,,,,,,
SENSOR,1789662443482,42173699882476,-2.0632114,7.4700933,8.188539,4.2377214,6.9279695,1.9428552,-12.525001,34.800003,-32.100002,,,,,,,,,,,,,,,,,,,,,,
SENSOR,1789662443509,42173764495810,-2.0632114,7.4700933,8.188539,3.806298,4.8181953,0.6108647,-12.525001,34.800003,-32.100002,,,,,,,,,,,,,,,,,,,,,,
SENSOR,1789662443526,42173774495810,-2.0632114,7.4700933,8.188539,3.806298,4.8181953,0.6108647,21.900002,15.750001,-45.825,,,,,,,,,,,,,,,,,,,,,,
SENSOR,1789662443587,42173804068987,-2.169991,6.538089,1.061815,3.806298,4.8181953,0.6108647,21.900002,15.750001,-45.825,,,,,,,,,,,,,,,,,,,,,,
SENSOR,1789662443605,42173864495810,-2.169991,6.538089,1.061815,-0.73685557,-4.603782,-1.3196205,21.900002,15.750001,-45.825,,,,,,,,,,,,,,,,,,,,,,
SENSOR,1789662443622,42173874495810,-2.169991,6.538089,1.061815,-0.73685557,-4.603782,-1.3196205,16.35,18.300001,-51.9,,,,,,,,,,,,,,,,,,,,,,
SENSOR,1789662443691,42173908255497,-5.10419,4.1850467,5.055137,-0.73685557,-4.603782,-1.3196205,16.35,18.300001,-51.9,,,,,,,,,,,,,,,,,,,,,,
SENSOR,1789662443708,42173964495810,-5.10419,4.1850467,5.055137,-0.72173667,-4.3962407,-0.7116574,16.35,18.300001,-51.9,,,,,,,,,,,,,,,,,,,,,,
SENSOR,1789662443726,42173974495810,-5.10419,4.1850467,5.055137,-0.72173667,-4.3962407,-0.7116574,-23.625,34.575,-47.775,,,,,,,,,,,,,,,,,,,,,,
SENSOR,1789662443796,42174012442007,-5.857032,4.4608197,5.3536415,-0.72173667,-4.3962407,-0.7116574,-23.625,34.575,-47.775,,,,,,,,,,,,,,,,,,,,,,
SENSOR,1789662443804,42174064495810,-5.857032,4.4608197,5.3536415,-2.0277655,-2.6380193,0.6575959,-23.625,34.575,-47.775,,,,,,,,,,,,,,,,,,,,,,
SENSOR,1789662443830,42174074495810,-5.857032,4.4608197,5.3536415,-2.0277655,-2.6380193,0.6575959,-32.025,38.775,-39.0,,,,,,,,,,,,,,,,,,,,,,
SENSOR,1789662443899,42174116628466,-2.7448666,5.0401816,9.139686,-2.0277655,-2.6380193,0.6575959,-32.025,38.775,-39.0,,,,,,,,,,,,,,,,,,,,,,
GNSS,1789662443900,,,,,,,,,,,true,11.05530955,76.92710155,378.3358154296875,3.7900925,0.0,,97,50,,,,,,,,,,,,,
SENSOR,1789662443913,42174164495810,-2.7448666,5.0401816,9.139686,-0.70478517,-1.711643,0.48762277,-32.025,38.775,-39.0,,,,,,,,,,,,,,,,,,,,,,
GNSS,1789662444000,,,,,,,,,,,true,11.05531167,76.9271026,378.4033203125,3.7900925,0.0,,97,50,,,,,,,,,,,,,
SENSOR,1789662443925,42174174495810,-2.7448666,5.0401816,9.139686,-0.70478517,-1.711643,0.48762277,-37.125,44.775,-21.975,,,,,,,,,,,,,,,,,,,,,,
SENSOR,1789662444004,42174264495810,-2.7448666,5.0401816,9.139686,-0.8393281,-1.0251837,0.07987056,-37.125,44.775,-21.975,,,,,,,,,,,,,,,,,,,,,,
SENSOR,1789662444004,42174220814976,-1.192523,5.7194443,8.630014,-0.8393281,-1.0251837,0.07987056,-37.125,44.775,-21.975,,,,,,,,,,,,,,,,,,,,,,
SENSOR,1789662444031,42174274495810,-1.192523,5.7194443,8.630014,-0.8393281,-1.0251837,0.07987056,-38.325,44.775,-14.55,,,,,,,,,,,,,,,,,,,,,,
SENSOR,1789662444108,42174325001435,-0.12562318,3.8730826,8.922237,-0.8393281,-1.0251837,0.07987056,-38.325,44.775,-14.55,,,,,,,,,,,,,,,,,,,,,,
SENSOR,1789662444109,42174364495810,-0.12562318,3.8730826,8.922237,-0.34055707,0.38576108,-0.2727511,-38.325,44.775,-14.55,,,,,,,,,,,,,,,,,,,,,,
SENSOR,1789662444126,42174374495810,-0.12562318,3.8730826,8.922237,-0.34055707,0.38576108,-0.2727511,-37.95,44.550003,-12.225,,,,,,,,,,,,,,,,,,,,,,
SENSOR,1789662444203,42174464495810,-0.12562318,3.8730826,8.922237,0.43478295,0.4670061,-0.08032871,-37.95,44.550003,-12.225,,,,,,,,,,,,,,,,,,,,,,
SENSOR,1789662444212,42174429187893,-1.0046864,4.1168513,9.545269,0.43478295,0.4670061,-0.08032871,-37.95,44.550003,-12.225,,,,,,,,,,,,,,,,,,,,,,
SENSOR,1789662444229,42174474495810,-1.0046864,4.1168513,9.545269,0.43478295,0.4670061,-0.08032871,-37.2,42.300003,-15.375001,,,,,,,,,,,,,,,,,,,,,,
CELLULAR,1789662444235,,,,,,,,,,,,,,,,,,,true,NR,4298047490,405,869,,75,403,634080,-105,NR_SS_RSRP,4,
SENSOR,1789662444307,42174564495810,-1.0046864,4.1168513,9.545269,0.18188497,0.6924152,0.218995,-37.2,42.300003,-15.375001,,,,,,,,,,,,,,,,,,,,,,
SENSOR,1789662444315,42174533374351,-0.9768698,4.866403,7.940283,0.18188497,0.6924152,0.218995,-37.2,42.300003,-15.375001,,,,,,,,,,,,,,,,,,,,,,
SENSOR,1789662444325,42174574495810,-0.9768698,4.866403,7.940283,0.18188497,0.6924152,0.218995,-34.725002,42.0,-21.0,,,,,,,,,,,,,,,,,,,,,,
SENSOR,1789662444404,42174664495810,-0.9768698,4.866403,7.940283,0.05635227,0.019089522,0.10705404,-34.725002,42.0,-21.0,,,,,,,,,,,,,,,,,,,,,,
SENSOR,1789662444420,42174637560757,-1.2502499,4.861019,8.008778,0.05635227,0.019089522,0.10705404,-34.725002,42.0,-21.0,,,,,,,,,,,,,,,,,,,,,,
SENSOR,1789662444428,42174674495810,-1.2502499,4.861019,8.008778,0.05635227,0.019089522,0.10705404,-31.2,41.100002,-24.525002,,,,,,,,,,,,,,,,,,,,,,
SENSOR,1789662444507,42174764495810,-1.2502499,4.861019,8.008778,0.20998475,0.54336417,0.19654572,-31.2,41.100002,-24.525002,,,,,,,,,,,,,,,,,,,,,,
SENSOR,1789662444525,42174741747216,-1.2032907,5.63091,7.891529,0.20998475,0.54336417,0.19654572,-31.2,41.100002,-24.525002,,,,,,,,,,,,,,,,,,,,,,
SENSOR,1789662444526,42174774495810,-1.2032907,5.63091,7.891529,0.20998475,0.54336417,0.19654572,-29.475,40.800003,-26.1,,,,,,,,,,,,,,,,,,,,,,
SENSOR,1789662444602,42174864495810,-1.2032907,5.63091,7.891529,-0.06505709,-0.05009091,0.011148281,-29.475,40.800003,-26.1,,,,,,,,,,,,,,,,,,,,,,
SENSOR,1789662444628,42174845933622,-1.4889339,5.558527,8.110771,-0.06505709,-0.05009091,0.011148281,-29.475,40.800003,-26.1,,,,,,,,,,,,,,,,,,,,,,
SENSOR,1789662444630,42174874495810,-1.4889339,5.558527,8.110771,-0.06505709,-0.05009091,0.011148281,-28.650002,40.5,-26.550001,,,,,,,,,,,,,,,,,,,,,,
SENSOR,1789662444708,42174964495810,-1.4889339,5.558527,8.110771,-0.05589412,0.0792597,0.06734783,-28.650002,40.5,-26.550001,,,,,,,,,,,,,,,,,,,,,,
SENSOR,1789662444725,42174974495810,-1.4889339,5.558527,8.110771,-0.05589412,0.0792597,0.06734783,-27.825,40.5,-27.45,,,,,,,,,,,,,,,,,,,,,,
SENSOR,1789662444732,42174950120028,-1.7659031,4.938786,8.335996,-0.05589412,0.0792597,0.06734783,-27.825,40.5,-27.45,,,,,,,,,,,,,,,,,,,,,,
SENSOR,1789662444802,42175064495810,-1.7659031,4.938786,8.335996,-0.14721839,0.003359756,-0.12324196,-27.825,40.5,-27.45,,,,,,,,,,,,,,,,,,,,,,
SENSOR,1789662444828,42175074495810,-1.7659031,4.938786,8.335996,-0.14721839,0.003359756,-0.12324196,-28.2,40.425003,-26.1,,,,,,,,,,,,,,,,,,,,,,
SENSOR,1789662444837,42175054306435,-1.7350955,4.5224347,8.169097,-0.14721839,0.003359756,-0.12324196,-28.2,40.425003,-26.1,,,,,,,,,,,,,,,,,,,,,,
GNSS,1789662444899,,,,,,,,,,,true,11.05531167,76.9271026,378.4033203125,3.7900925,0.0,,97,58,,,,,,,,,,,,,
SENSOR,1789662444911,42175164495810,-1.7350955,4.5224347,8.169097,-0.081703156,0.28863358,-0.024281872,-28.2,40.425003,-26.1,,,,,,,,,,,,,,,,,,,,,,
GNSS,1789662445000,,,,,,,,,,,true,11.05531315,76.92710142,377.90008544921875,3.7900925,0.0,,97,58,,,,,,,,,,,,,
SENSOR,1789662444923,42175174495810,-1.7350955,4.5224347,8.169097,-0.081703156,0.28863358,-0.024281872,-26.7,39.825,-28.575,,,,,,,,,,,,,,,,,,,,,,
SENSOR,1789662444940,42175158492841,-2.32373,4.260421,8.383852,-0.081703156,0.28863358,-0.024281872,-26.7,39.825,-28.575,,,,,,,,,,,,,,,,,,,,,,
SENSOR,1789662445002,42175264495810,-2.32373,4.260421,8.383852,-0.41874775,-0.21105376,-0.32635447,-26.7,39.825,-28.575,,,,,,,,,,,,,,,,,,,,,,
SENSOR,1789662445027,42175274495810,-2.32373,4.260421,8.383852,-0.41874775,-0.21105376,-0.32635447,-28.275002,39.975002,-24.975,,,,,,,,,,,,,,,,,,,,,,
SENSOR,1789662445045,42175262679247,-2.5872395,4.004688,8.414361,-0.41874775,-0.21105376,-0.32635447,-28.275002,39.975002,-24.975,,,,,,,,,,,,,,,,,,,,,,
SENSOR,1789662445105,42175364495810,-2.5872395,4.004688,8.414361,-0.2151771,0.73853546,0.38453934,-28.275002,39.975002,-24.975,,,,,,,,,,,,,,,,,,,,,,
SENSOR,1789662445123,42175374495810,-2.5872395,4.004688,8.414361,-0.2151771,0.73853546,0.38453934,-25.125002,40.125,-26.175001,,,,,,,,,,,,,,,,,,,,,,
SENSOR,1789662445150,42175366865601,-3.266801,4.747659,8.985647,-0.2151771,0.73853546,0.38453934,-25.125002,40.125,-26.175001,,,,,,,,,,,,,,,,,,,,,,
SENSOR,1789662445202,42175464495810,-3.266801,4.747659,8.985647,-0.18371756,0.65561056,0.7806851,-25.125002,40.125,-26.175001,,,,,,,,,,,,,,,,,,,,,,
SENSOR,1789662445228,42175474495810,-3.266801,4.747659,8.985647,-0.18371756,0.65561056,0.7806851,-20.475,42.15,-27.000002,,,,,,,,,,,,,,,,,,,,,,
SENSOR,1789662445254,42175471051955,-3.5647075,5.0676994,9.74477,-0.18371756,0.65561056,0.7806851,-20.475,42.15,-27.000002,,,,,,,,,,,,,,,,,,,,,,
CELLULAR,1789662445257,,,,,,,,,,,,,,,,,,,true,NR,4298047490,405,869,,75,403,634080,-100,NR_SS_RSRP,4,
SENSOR,1789662445305,42175564495810,-3.5647075,5.0676994,9.74477,0.6620246,1.3471094,1.0613774,-20.475,42.15,-27.000002,,,,,,,,,,,,,,,,,,,,,,
SENSOR,1789662445323,42175574495810,-3.5647075,5.0676994,9.74477,0.6620246,1.3471094,1.0613774,-12.525001,43.2,-31.725,,,,,,,,,,,,,,,,,,,,,,
SENSOR,1789662445358,42175575238310,-3.8536408,5.7966127,8.130512,0.6620246,1.3471094,1.0613774,-12.525001,43.2,-31.725,,,,,,,,,,,,,,,,,,,,,,
SENSOR,1789662445410,42175664495810,-3.8536408,5.7966127,8.130512,0.013744457,1.6670498,1.7472258,-12.525001,43.2,-31.725,,,,,,,,,,,,,,,,,,,,,,
SENSOR,1789662445428,42175674495810,-3.8536408,5.7966127,8.130512,0.013744457,1.6670498,1.7472258,-0.975,42.675003,-33.600002,,,,,,,,,,,,,,,,,,,,,,
SENSOR,1789662445462,42175679424664,-0.6451648,4.432704,7.9295154,0.013744457,1.6670498,1.7472258,-0.975,42.675003,-33.600002,,,,,,,,,,,,,,,,,,,,,,
SENSOR,1789662445506,42175764495810,-0.6451648,4.432704,7.9295154,0.09789107,0.41599888,0.57360196,-0.975,42.675003,-33.600002,,,,,,,,,,,,,,,,,,,,,,
SENSOR,1789662445523,42175774495810,-0.6451648,4.432704,7.9295154,0.09789107,0.41599888,0.57360196,5.925,41.850002,-34.275,,,,,,,,,,,,,,,,,,,,,,
SENSOR,1789662445569,42175783611018,-0.5703891,4.9582276,7.522735,0.09789107,0.41599888,0.57360196,5.925,41.850002,-34.275,,,,,,,,,,,,,,,,,,,,,,
SENSOR,1789662445610,42175864495810,-0.5703891,4.9582276,7.522735,-0.218995,-0.45906484,-0.265268,5.925,41.850002,-34.275,,,,,,,,,,,,,,,,,,,,,,
SENSOR,1789662445628,42175874495810,-0.5703891,4.9582276,7.522735,-0.218995,-0.45906484,-0.265268,5.7000003,41.850002,-34.2,,,,,,,,,,,,,,,,,,,,,,
SENSOR,1789662445671,42175887797320,-2.12363,5.4224353,7.275975,-0.218995,-0.45906484,-0.265268,5.7000003,41.850002,-34.2,,,,,,,,,,,,,,,,,,,,,,
SENSOR,1789662445705,42175964495810,-2.12363,5.4224353,7.275975,-0.07192932,-0.2887863,-0.43386668,5.7000003,41.850002,-34.2,,,,,,,,,,,,,,,,,,,,,,
SENSOR,1789662445723,42175974495810,-2.12363,5.4224353,7.275975,-0.07192932,-0.2887863,-0.43386668,2.5500002,42.45,-33.675003,,,,,,,,,,,,,,,,,,,,,,
SENSOR,1789662445774,42175991983674,-4.0510488,6.033203,7.487142,-0.07192932,-0.2887863,-0.43386668,2.5500002,42.45,-33.675003,,,,,,,,,,,,,,,,,,,,,,
SENSOR,1789662445809,42176064495810,-4.0510488,6.033203,7.487142,-0.016493347,-0.40469787,-0.040317073,2.5500002,42.45,-33.675003,,,,,,,,,,,,,,,,,,,,,,
SENSOR,1789662445827,42176074495810,-4.0510488,6.033203,7.487142,-0.016493347,-0.40469787,-0.040317073,0.82500005,42.600002,-34.725002,,,,,,,,,,,,,,,,,,,,,,
SENSOR,1789662445878,42176096169976,-3.327519,5.945865,6.996015,-0.016493347,-0.40469787,-0.040317073,0.82500005,42.600002,-34.725002,,,,,,,,,,,,,,,,,,,,,,
GNSS,1789662445902,,,,,,,,,,,true,11.05531315,76.92710142,377.90008544921875,3.7900925,0.0,,97,59,,,,,,,,,,,,,
SENSOR,1789662445915,42176164495810,-3.327519,5.945865,6.996015,-0.062155485,-0.048869178,0.040622503,0.82500005,42.600002,-34.725002,,,,,,,,,,,,,,,,,,,,,,
GNSS,1789662446000,,,,,,,,,,,true,11.05531378,76.92710484,378.41082763671875,3.7900925,0.0,,97,59,,,,,,,,,,,,,
SENSOR,1789662445923,42176174495810,-3.327519,5.945865,6.996015,-0.062155485,-0.048869178,0.040622503,0.52500004,42.600002,-33.75,,,,,,,,,,,,,,,,,,,,,,
SENSOR,1789662445983,42176200356278,-2.3973093,5.3967123,7.5813594,-0.062155485,-0.048869178,0.040622503,0.52500004,42.600002,-33.75,,,,,,,,,,,,,,,,,,,,,,
SENSOR,1789662446009,42176264495810,-2.3973093,5.3967123,7.5813594,-0.071776606,-0.22388192,-0.19517128,0.52500004,42.600002,-33.75,,,,,,,,,,,,,,,,,,,,,,
SENSOR,1789662446027,42176274495810,-2.3973093,5.3967123,7.5813594,-0.071776606,-0.22388192,-0.19517128,-1.0500001,43.125,-33.375,,,,,,,,,,,,,,,,,,,,,,
SENSOR,1789662446086,42176304542528,-2.7472596,5.5543394,7.7874413,-0.071776606,-0.22388192,-0.19517128,-1.0500001,43.125,-33.375,,,,,,,,,,,,,,,,,,,,,,
SENSOR,1789662446105,42176364495810,-2.7472596,5.5543394,7.7874413,0.04001164,-0.15790853,-0.23075415,-1.0500001,43.125,-33.375,,,,,,,,,,,,,,,,,,,,,,
SENSOR,1789662446122,42176374495810,-2.7472596,5.5543394,7.7874413,0.04001164,-0.15790853,-0.23075415,-3.45,43.575,-33.0,,,,,,,,,,,,,,,,,,,,,,
SENSOR,1789662446192,42176408728830,-3.4893336,5.517251,7.969595,0.04001164,-0.15790853,-0.23075415,-3.45,43.575,-33.0,,,,,,,,,,,,,,,,,,,,,,
SENSOR,1789662446208,42176464495810,-3.4893336,5.517251,7.969595,0.021380264,-0.14874557,-0.17684534,-3.45,43.575,-33.0,,,,,,,,,,,,,,,,,,,,,,
SENSOR,1789662446226,42176474495810,-3.4893336,5.517251,7.969595,0.021380264,-0.14874557,-0.17684534,-5.625,43.95,-31.95,,,,,,,,,,,,,,,,,,,,,,
CELLULAR,1789662446283,,,,,,,,,,,,,,,,,,,true,NR,4298047490,405,869,,75,403,634080,-100,NR_SS_RSRP,4,
SENSOR,1789662446309,42176512915080,-3.473182,5.1343994,7.9794655,0.021380264,-0.14874557,-0.17684534,-5.625,43.95,-31.95,,,,,,,,,,,,,,,,,,,,,,
SENSOR,1789662446309,42176564495810,-3.473182,5.1343994,7.9794655,0.22876884,-0.057115853,-0.071013026,-5.625,43.95,-31.95,,,,,,,,,,,,,,,,,,,,,,
SENSOR,1789662446322,42176574495810,-3.473182,5.1343994,7.9794655,0.22876884,-0.057115853,-0.071013026,-6.3,43.5,-33.600002,,,,,,,,,,,,,,,,,,,,,,
SENSOR,1789662446403,42176617101382,-2.7798617,5.209474,7.1081786,0.22876884,-0.057115853,-0.071013026,-6.3,43.5,-33.600002,,,,,,,,,,,,,,,,,,,,,,
SENSOR,1789662446408,42176664495810,-2.7798617,5.209474,7.1081786,0.04001164,-0.08536834,-0.04474584,-6.3,43.5,-33.600002,,,,,,,,,,,,,,,,,,,,,,
SENSOR,1789662446426,42176674495810,-2.7798617,5.209474,7.1081786,0.04001164,-0.08536834,-0.04474584,-6.0750003,42.975002,-33.975002,,,,,,,,,,,,,,,,,,,,,,
SENSOR,1789662446503,42176764495810,-2.7798617,5.209474,7.1081786,-0.035430156,-0.008246673,-0.041844234,-6.0750003,42.975002,-33.975002,,,,,,,,,,,,,,,,,,,,,,
SENSOR,1789662446504,42176721287632,-2.5695925,5.5343,7.467401,-0.035430156,-0.008246673,-0.041844234,-6.0750003,42.975002,-33.975002,,,,,,,,,,,,,,,,,,,,,,
SENSOR,1789662446530,42176774495810,-2.5695925,5.5343,7.467401,-0.035430156,-0.008246673,-0.041844234,-7.275,43.125,-32.925003,,,,,,,,,,,,,,,,,,,,,,
SENSOR,1789662446607,42176864495810,-2.5695925,5.5343,7.467401,-0.011148281,-0.15913026,0.1605047,-7.275,43.125,-32.925003,,,,,,,,,,,,,,,,,,,,,,
SENSOR,1789662446607,42176825473882,-2.3219352,5.393123,7.876275,-0.011148281,-0.15913026,0.1605047,-7.275,43.125,-32.925003,,,,,,,,,,,,,,,,,,,,,,
SENSOR,1789662446626,42176874495810,-2.3219352,5.393123,7.876275,-0.011148281,-0.15913026,0.1605047,-6.3750005,42.9,-34.275,,,,,,,,,,,,,,,,,,,,,,
SENSOR,1789662446703,42176964495810,-2.3219352,5.393123,7.876275,0.090866126,-0.051923502,-0.46670064,-6.3750005,42.9,-34.275,,,,,,,,,,,,,,,,,,,,,,
SENSOR,1789662446713,42176929660080,-1.9962122,4.9378886,7.9244304,0.090866126,-0.051923502,-0.46670064,-6.3750005,42.9,-34.275,,,,,,,,,,,,,,,,,,,,,,
SENSOR,1789662446729,42176974495810,-1.9962122,4.9378886,7.9244304,0.090866126,-0.051923502,-0.46670064,-8.925,42.675003,-33.0,,,,,,,,,,,,,,,,,,,,,,
SENSOR,1789662446807,42177064495810,-1.9962122,4.9378886,7.9244304,-0.087048225,-0.28481567,-0.3011563,-8.925,42.675003,-33.0,,,,,,,,,,,,,,,,,,,,,,
SENSOR,1789662446818,42177033846330,-3.8347974,5.6620164,7.7123666,-0.087048225,-0.28481567,-0.3011563,-8.925,42.675003,-33.0,,,,,,,,,,,,,,,,,,,,,,
SENSOR,1789662446826,42177074495810,-3.8347974,5.6620164,7.7123666,-0.087048225,-0.28481567,-0.3011563,-10.200001,42.525,-34.425003,,,,,,,,,,,,,,,,,,,,,,
GNSS,1789662446904,,,,,,,,,,,true,11.05531378,76.92710484,378.41082763671875,3.7900925,0.0,,92,59,,,,,,,,,,,,,
SENSOR,1789662446923,42177164495810,-3.8347974,5.6620164,7.7123666,0.03161225,-0.17928879,-0.10262527,-10.200001,42.525,-34.425003,,,,,,,,,,,,,,,,,,,,,,
SENSOR,1789662446923,42177138032528,-3.6421752,5.875277,7.9426756,0.03161225,-0.17928879,-0.10262527,-10.200001,42.525,-34.425003,,,,,,,,,,,,,,,,,,,,,,
GNSS,1789662447000,,,,,,,,,,,true,11.05531313,76.92710573,378.46600341796875,3.7900925,0.0,,92,59,,,,,,,,,,,,,
SENSOR,1789662446929,42177174495810,-3.6421752,5.875277,7.9426756,0.03161225,-0.17928879,-0.10262527,-12.150001,42.225002,-33.525,,,,,,,,,,,,,,,,,,,,,,
SENSOR,1789662447008,42177264495810,-3.6421752,5.875277,7.9426756,0.2406807,0.40423974,-0.2067777,-12.150001,42.225002,-33.525,,,,,,,,,,,,,,,,,,,,,,
SENSOR,1789662447024,42177242218726,-2.5701907,6.276673,8.072785,0.2406807,0.40423974,-0.2067777,-12.150001,42.225002,-33.525,,,,,,,,,,,,,,,,,,,,,,
SENSOR,1789662447027,42177274495810,-2.5701907,6.276673,8.072785,0.2406807,0.40423974,-0.2067777,-12.825001,41.775,-33.225002,,,,,,,,,,,,,,,,,,,,,,
SENSOR,1789662447104,42177364495810,-2.5701907,6.276673,8.072785,0.9089667,0.6647735,-0.2990183,-12.825001,41.775,-33.225002,,,,,,,,,,,,,,,,,,,,,,
SENSOR,1789662447128,42177346404924,-2.9949167,7.0899334,8.484052,0.9089667,0.6647735,-0.2990183,-12.825001,41.775,-33.225002,,,,,,,,,,,,,,,,,,,,,,
SENSOR,1789662447128,42177374495810,-2.9949167,7.0899334,8.484052,0.9089667,0.6647735,-0.2990183,-12.150001,39.9,-36.45,,,,,,,,,,,,,,,,,,,,,,
SENSOR,1789662447207,42177464495810,-2.9949167,7.0899334,8.484052,1.616348,0.11392627,-0.0013744456,-12.150001,39.9,-36.45,,,,,,,,,,,,,,,,,,,,,,
SENSOR,1789662447225,42177474495810,-2.9949167,7.0899334,8.484052,1.616348,0.11392627,-0.0013744456,-9.900001,35.925003,-42.825,,,,,,,,,,,,,,,,,,,,,,
SENSOR,1789662447233,42177450591122,-2.8292136,7.1024957,6.2204413,1.616348,0.11392627,-0.0013744456,-9.900001,35.925003,-42.825,,,,,,,,,,,,,,,,,,,,,,
SENSOR,1789662447304,42177564495810,-2.8292136,7.1024957,6.2204413,1.8377866,0.8683442,0.11285726,-9.900001,35.925003,-42.825,,,,,,,,,,,,,,,,,,,,,,
CELLULAR,1789662447308,,,,,,,,,,,,,,,,,,,true,NR,4298047490,405,869,,75,403,634080,-100,NR_SS_RSRP,4,
SENSOR,1789662447337,42177574495810,-2.8292136,7.1024957,6.2204413,1.8377866,0.8683442,0.11285726,-4.9500003,30.225,-49.050003,,,,,,,,,,,,,,,,,,,,,,
SENSOR,1789662447337,42177554777320,-2.6243281,7.0929246,5.5097733,1.8377866,0.8683442,0.11285726,-4.9500003,30.225,-49.050003,,,,,,,,,,,,,,,,,,,,,,
SENSOR,1789662447407,42177664495810,-2.6243281,7.0929246,5.5097733,1.0118974,0.83092874,-0.09529489,-4.9500003,30.225,-49.050003,,,,,,,,,,,,,,,,,,,,,,
SENSOR,1789662447425,42177674495810,-2.6243281,7.0929246,5.5097733,1.0118974,0.83092874,-0.09529489,-4.65,25.800001,-53.625004,,,,,,,,,,,,,,,,,,,,,,
SENSOR,1789662447442,42177658963466,-4.4575295,7.9683986,3.321537,1.0118974,0.83092874,-0.09529489,-4.65,25.800001,-53.625004,,,,,,,,,,,,,,,,,,,,,,
SENSOR,1789662447502,42177764495810,-4.4575295,7.9683986,3.321537,0.29138246,-0.979827,-0.070249446,-4.65,25.800001,-53.625004,,,,,,,,,,,,,,,,,,,,,,
SENSOR,1789662447528,42177774495810,-4.4575295,7.9683986,3.321537,0.29138246,-0.979827,-0.070249446,-6.8250003,25.500002,-56.625004,,,,,,,,,,,,,,,,,,,,,,
SENSOR,1789662447546,42177763149612,-4.627719,7.714161,3.367898,0.29138246,-0.979827,-0.070249446,-6.8250003,25.500002,-56.625004,,,,,,,,,,,,,,,,,,,,,,
SENSOR,1789662447607,42177864495810,-4.627719,7.714161,3.367898,0.10506873,-0.23961169,-0.071013026,-6.8250003,25.500002,-56.625004,,,,,,,,,,,,,,,,,,,,,,
SENSOR,1789662447624,42177874495810,-4.627719,7.714161,3.367898,0.10506873,-0.23961169,-0.071013026,-9.675,26.325,-58.575,,,,,,,,,,,,,,,,,,,,,,
SENSOR,1789662447650,42177867335757,-4.3851466,7.4700933,3.0376883,0.10506873,-0.23961169,-0.071013026,-9.675,26.325,-58.575,,,,,,,,,,,,,,,,,,,,,,
SENSOR,1789662447702,42177964495810,-4.3851466,7.4700933,3.0376883,-0.39324418,0.28053963,-0.006108647,-9.675,26.325,-58.575,,,,,,,,,,,,,,,,,,,,,,
SENSOR,1789662447728,42177974495810,-4.3851466,7.4700933,3.0376883,-0.39324418,0.28053963,-0.006108647,-11.175,28.275002,-60.975002,,,,,,,,,,,,,,,,,,,,,,
SENSOR,1789662447754,42177971521903,-4.977968,7.2762747,2.6518457,-0.39324418,0.28053963,-0.006108647,-11.175,28.275002,-60.975002,,,,,,,,,,,,,,,,,,,,,,
SENSOR,1789662447806,42178064495810,-4.977968,7.2762747,2.6518457,-0.43233952,0.61987495,0.08139773,-11.175,28.275002,-60.975002,,,,,,,,,,,,,,,,,,,,,,
SENSOR,1789662447824,42178074495810,-4.977968,7.2762747,2.6518457,-0.43233952,0.61987495,0.08139773,-12.375001,32.175003,-63.15,,,,,,,,,,,,,,,,,,,,,,
SENSOR,1789662447858,42178075708049,-5.1667023,7.114759,3.0933216,-0.43233952,0.61987495,0.08139773,-12.375001,32.175003,-63.15,,,,,,,,,,,,,,,,,,,,,,
SENSOR,1789662447902,42178164495810,-5.1667023,7.114759,3.0933216,-0.34483314,-0.39767292,0.29016075,-12.375001,32.175003,-63.15,,,,,,,,,,,,,,,,,,,,,,
GNSS,1789662447903,,,,,,,,,,,true,11.05531313,76.92710573,378.46600341796875,3.7900925,0.0,,93,63,,,,,,,,,,,,,
GNSS,1789662448000,,,,,,,,,,,true,11.05531234,76.92710493,378.4034423828125,3.7900925,0.0,,93,63,,,,,,,,,,,,,
SENSOR,1789662447928,42178174495810,-5.1667023,7.114759,3.0933216,-0.34483314,-0.39767292,0.29016075,-15.525001,38.325,-65.325005,,,,,,,,,,,,,,,,,,,,,,
GNSS,1789662447922,,,,,,,,,,,true,11.0554072,76.9271226,374.70001220703125,85.553604,,,93,63,,,,,,,,,,,,,
SENSOR,1789662447962,42178179894195,-4.5358944,7.1886373,4.6325045,-0.34483314,-0.39767292,0.29016075,-15.525001,38.325,-65.325005,,,,,,,,,,,,,,,,,,,,,,
SENSOR,1789662448006,42178264495810,-4.5358944,7.1886373,4.6325045,-0.11804961,-0.02275471,0.32055128,-15.525001,38.325,-65.325005,,,,,,,,,,,,,,,,,,,,,,
SENSOR,1789662448024,42178274495810,-4.5358944,7.1886373,4.6325045,-0.11804961,-0.02275471,0.32055128,-21.075,41.475002,-65.475006,,,,,,,,,,,,,,,,,,,,,,
SENSOR,1789662448067,42178284080289,-3.9553359,7.515856,3.6511483,-0.11804961,-0.02275471,0.32055128,-21.075,41.475002,-65.475006,,,,,,,,,,,,,,,,,,,,,,
SENSOR,1789662448101,42178364495810,-3.9553359,7.515856,3.6511483,-0.0424551,0.9697477,0.121409364,-21.075,41.475002,-65.475006,,,,,,,,,,,,,,,,,,,,,,
SENSOR,1789662448128,42178374495810,-3.9553359,7.515856,3.6511483,-0.0424551,0.9697477,0.121409364,-21.6,44.850002,-67.65,,,,,,,,,,,,,,,,,,,,,,
SENSOR,1789662448171,42178388266382,-4.6471605,7.748857,3.3047872,-0.0424551,0.9697477,0.121409364,-21.6,44.850002,-67.65,,,,,,,,,,,,,,,,,,,,,,
SENSOR,1789662448206,42178464495810,-4.6471605,7.748857,3.3047872,-0.36865687,0.84513134,0.23441933,-21.6,44.850002,-67.65,,,,,,,,,,,,,,,,,,,,,,
SENSOR,1789662448224,42178474495810,-4.6471605,7.748857,3.3047872,-0.36865687,0.84513134,0.23441933,-17.400002,47.025,-71.475006,,,,,,,,,,,,,,,,,,,,,,
SENSOR,1789662448275,42178492452528,-5.2642097,7.361519,4.2131624,-0.36865687,0.84513134,0.23441933,-17.400002,47.025,-71.475006,,,,,,,,,,,,,,,,,,,,,,
SENSOR,1789662448310,42178564495810,-5.2642097,7.361519,4.2131624,-0.13622284,-0.10674861,0.10140354,-17.400002,47.025,-71.475006,,,,,,,,,,,,,,,,,,,,,,
SENSOR,1789662448327,42178574495810,-5.2642097,7.361519,4.2131624,-0.13622284,-0.10674861,0.10140354,-18.225,53.475002,-73.575005,,,,,,,,,,,,,,,,,,,,,,
CELLULAR,1789662448338,,,,,,,,,,,,,,,,,,,true,NR,4298047490,405,869,,75,403,634080,-100,NR_SS_RSRP,4,
SENSOR,1789662448379,42178596638570,-4.582854,7.6633134,4.010969,-0.13622284,-0.10674861,0.10140354,-18.225,53.475002,-73.575005,,,,,,,,,,,,,,,,,,,,,,
SENSOR,1789662448405,42178664495810,-4.582854,7.6633134,4.010969,-0.21410808,-0.22953242,0.0943786,-18.225,53.475002,-73.575005,,,,,,,,,,,,,,,,,,,,,,
SENSOR,1789662448423,42178674495810,-4.582854,7.6633134,4.010969,-0.21410808,-0.22953242,0.0943786,-17.775002,57.750004,-75.600006,,,,,,,,,,,,,,,,,,,,,,
SENSOR,1789662448483,42178700824664,-4.0040894,7.8679,4.262215,-0.21410808,-0.22953242,0.0943786,-17.775002,57.750004,-75.600006,,,,,,,,,,,,,,,,,,,,,,
SENSOR,1789662448509,42178764495810,-4.0040894,7.8679,4.262215,0.05360338,0.16920952,0.07406735,-17.775002,57.750004,-75.600006,,,,,,,,,,,,,,,,,,,,,,
SENSOR,1789662448528,42178774495810,-4.0040894,7.8679,4.262215,0.05360338,0.16920952,0.07406735,-17.85,59.850002,-76.425,,,,,,,,,,,,,,,,,,,,,,
SENSOR,1789662448588,42178805010757,-3.8033917,8.000103,4.08724,0.05360338,0.16920952,0.07406735,-17.85,59.850002,-76.425,,,,,,,,,,,,,,,,,,,,,,
SENSOR,1789662448605,42178864495810,-3.8033917,8.000103,4.08724,0.19578214,0.12797616,-0.0030543236,-17.85,59.850002,-76.425,,,,,,,,,,,,,,,,,,,,,,
SENSOR,1789662448624,42178874495810,-3.8033917,8.000103,4.08724,0.19578214,0.12797616,-0.0030543236,-17.400002,60.375004,-79.875,,,,,,,,,,,,,,,,,,,,,,
SENSOR,1789662448692,42178909196799,-4.595715,8.399705,3.3553355,0.19578214,0.12797616,-0.0030543236,-17.400002,60.375004,-79.875,,,,,,,,,,,,,,,,,,,,,,
SENSOR,1789662448709,42178964495810,-4.595715,8.399705,3.3553355,0.10216712,0.4747946,0.022296563,-17.400002,60.375004,-79.875,,,,,,,,,,,,,,,,,,,,,,
SENSOR,1789662448727,42178974495810,-4.595715,8.399705,3.3553355,0.10216712,0.4747946,0.022296563,-16.425001,60.15,-84.525,,,,,,,,,,,,,,,,,,,,,,
SENSOR,1789662448796,42179013382893,-4.575974,7.9313097,2.8920252,0.10216712,0.4747946,0.022296563,-16.425001,60.15,-84.525,,,,,,,,,,,,,,,,,,,,,,
SENSOR,1789662448804,42179064495810,-4.575974,7.9313097,2.8920252,0.07635809,0.38102686,-0.024434589,-16.425001,60.15,-84.525,,,,,,,,,,,,,,,,,,,,,,
SENSOR,1789662448823,42179074495810,-4.575974,7.9313097,2.8920252,0.07635809,0.38102686,-0.024434589,-14.700001,61.725002,-90.0,,,,,,,,,,,,,,,,,,,,,,
SENSOR,1789662448900,42179117568935,-4.3734818,7.568199,2.728416,0.07635809,0.38102686,-0.024434589,-14.700001,61.725002,-90.0,,,,,,,,,,,,,,,,,,,,,,
GNSS,1789662448903,,,,,,,,,,,true,11.0554072,76.9271226,374.70001220703125,85.553604,,,97,64,,,,,,,,,,,,,
SENSOR,1789662448919,42179164495810,-4.3734818,7.568199,2.728416,-0.1831067,-0.024740022,-0.20234893,-14.700001,61.725002,-90.0,,,,,,,,,,,,,,,,,,,,,,
GNSS,1789662449000,,,,,,,,,,,true,11.05531328,76.92710479,378.1026611328125,3.7900925,0.0,,97,64,,,,,,,,,,,,,
SENSOR,1789662448926,42179174495810,-4.3734818,7.568199,2.728416,-0.1831067,-0.024740022,-0.20234893,-12.825001,68.100006,-94.950005,,,,,,,,,,,,,,,,,,,,,,
SENSOR,1789662449004,42179264495810,-4.3734818,7.568199,2.728416,0.03726275,-0.345444,-0.14798197,-12.825001,68.100006,-94.950005,,,,,,,,,,,,,,,,,,,,,,
SENSOR,1789662449005,42179221754976,-5.0012984,7.8346996,3.411866,0.03726275,-0.345444,-0.14798197,-12.825001,68.100006,-94.950005,,,,,,,,,,,,,,,,,,,,,,
SENSOR,1789662449024,42179274495810,-5.0012984,7.8346996,3.411866,0.03726275,-0.345444,-0.14798197,-14.325001,72.600006,-95.55,,,,,,,,,,,,,,,,,,,,,,
SENSOR,1789662449112,42179364495810,-5.0012984,7.8346996,3.411866,0.06505709,-0.43753186,-0.08750637,-14.325001,72.600006,-95.55,,,,,,,,,,,,,,,,,,,,,,
SENSOR,1789662449113,42179325941018,-5.2055855,7.9594254,4.0238304,0.06505709,-0.43753186,-0.08750637,-14.325001,72.600006,-95.55,,,,,,,,,,,,,,,,,,,,,,
SENSOR,1789662449127,42179374495810,-5.2055855,7.9594254,4.0238304,0.06505709,-0.43753186,-0.08750637,-15.375001,77.025,-94.875,,,,,,,,,,,,,,,,,,,,,,
SENSOR,1789662449205,42179464495810,-5.2055855,7.9594254,4.0238304,0.22495094,-0.05925388,0.013897172,-15.375001,77.025,-94.875,,,,,,,,,,,,,,,,,,,,,,
SENSOR,1789662449213,42179430127060,-5.3294144,8.393424,2.8474588,0.22495094,-0.05925388,0.013897172,-15.375001,77.025,-94.875,,,,,,,,,,,,,,,,,,,,,,
SENSOR,1789662449222,42179474495810,-5.3294144,8.393424,2.8474588,0.22495094,-0.05925388,0.013897172,-13.8,76.950005,-99.3,,,,,,,,,,,,,,,,,,,,,,
SENSOR,1789662449308,42179564495810,-5.3294144,8.393424,2.8474588,0.346513,0.44287694,-0.09407317,-13.8,76.950005,-99.3,,,,,,,,,,,,,,,,,,,,,,
SENSOR,1789662449317,42179534313049,-4.554738,8.079366,2.9419754,0.346513,0.44287694,-0.09407317,-13.8,76.950005,-99.3,,,,,,,,,,,,,,,,,,,,,,
SENSOR,1789662449326,42179574495810,-4.554738,8.079366,2.9419754,0.346513,0.44287694,-0.09407317,-4.425,76.950005,-101.62501,,,,,,,,,,,,,,,,,,,,,,
CELLULAR,1789662449362,,,,,,,,,,,,,,,,,,,true,NR,4298047490,405,869,,75,403,634080,-100,NR_SS_RSRP,4,
SENSOR,1789662449403,42179664495810,-4.554738,8.079366,2.9419754,0.3049742,0.21380265,-0.26404628,-4.425,76.950005,-101.62501,,,,,,,,,,,,,,,,,,,,,,
SENSOR,1789662449421,42179638499091,-5.131408,7.934899,2.3428724,0.3049742,0.21380265,-0.26404628,-4.425,76.950005,-101.62501,,,,,,,,,,,,,,,,,,,,,,
SENSOR,1789662449429,42179674495810,-5.131408,7.934899,2.3428724,0.3049742,0.21380265,-0.26404628,-5.55,76.875,-104.700005,,,,,,,,,,,,,,,,,,,,,,
SENSOR,1789662449508,42179764495810,-5.131408,7.934899,2.3428724,-0.5766563,-0.010995565,0.16676606,-5.55,76.875,-104.700005,,,,,,,,,,,,,,,,,,,,,,
SENSOR,1789662449526,42179742685080,-5.1619167,7.47787,4.604389,-0.5766563,-0.010995565,0.16676606,-5.55,76.875,-104.700005,,,,,,,,,,,,,,,,,,,,,,
SENSOR,1789662449526,42179774495810,-5.1619167,7.47787,4.604389,-0.5766563,-0.010995565,0.16676606,-10.875,77.625,-101.62501,,,,,,,,,,,,,,,,,,,,,,
SENSOR,1789662449607,42179864495810,-5.1619167,7.47787,4.604389,0.76724607,0.26404628,-0.26206097,-10.875,77.625,-101.62501,,,,,,,,,,,,,,,,,,,,,,
SENSOR,1789662449630,42179846871070,-5.513961,7.5346994,1.0648061,0.76724607,0.26404628,-0.26206097,-10.875,77.625,-101.62501,,,,,,,,,,,,,,,,,,,,,,
SENSOR,1789662449632,42179874495810,-5.513961,7.5346994,1.0648061,0.76724607,0.26404628,-0.26206097,-21.45,69.75,-102.00001,,,,,,,,,,,,,,,,,,,,,,
SENSOR,1789662449708,42179964495810,-5.513961,7.5346994,1.0648061,-0.5009091,-1.3084723,0.024892738,-21.45,69.75,-102.00001,,,,,,,,,,,,,,,,,,,,,,
SENSOR,1789662449726,42179974495810,-5.513961,7.5346994,1.0648061,-0.5009091,-1.3084723,0.024892738,-32.550003,69.3,-94.8,,,,,,,,,,,,,,,,,,,,,,
SENSOR,1789662449733,42179951057060,-6.2623158,7.75783,1.7578273,-0.5009091,-1.3084723,0.024892738,-32.550003,69.3,-94.8,,,,,,,,,,,,,,,,,,,,,,
SENSOR,1789662449803,42180064495810,-6.2623158,7.75783,1.7578273,-1.1641555,-2.1045816,0.106595896,-32.550003,69.3,-94.8,,,,,,,,,,,,,,,,,,,,,,
SENSOR,1789662449830,42180074495810,-6.2623158,7.75783,1.7578273,-1.1641555,-2.1045816,0.106595896,-51.9,79.05,-79.875,,,,,,,,,,,,,,,,,,,,,,
SENSOR,1789662449838,42180055243049,-5.0593243,7.2975106,4.1482573,-1.1641555,-2.1045816,0.106595896,-51.9,79.05,-79.875,,,,,,,,,,,,,,,,,,,,,,
GNSS,1789662449903,,,,,,,,,,,true,11.05531328,76.92710479,378.1026611328125,3.7900925,0.0,,97,65,,,,,,,,,,,,,
SENSOR,1789662449920,42180164495810,-5.0593243,7.2975106,4.1482573,-0.98776823,-2.4460552,0.15302162,-51.9,79.05,-79.875,,,,,,,,,,,,,,,,,,,,,,
GNSS,1789662450000,,,,,,,,,,,true,11.05531437,76.92710555,378.2437744140625,3.7900925,0.0,,97,65,,,,,,,,,,,,,
SENSOR,1789662449924,42180174495810,-5.0593243,7.2975106,4.1482573,-0.98776823,-2.4460552,0.15302162,-67.5,89.100006,-58.500004,,,,,,,,,,,,,,,,,,,,,,
SENSOR,1789662449942,42180159429039,-3.0170503,6.2051873,6.713662,-0.98776823,-2.4460552,0.15302162,-67.5,89.100006,-58.500004,,,,,,,,,,,,,,,,,,,,,,
SENSOR,1789662450003,42180264495810,-3.0170503,6.2051873,6.713662,0.0065667955,-0.82833254,-0.33612832,-67.5,89.100006,-58.500004,,,,,,,,,,,,,,,,,,,,,,
SENSOR,1789662450029,42180274495810,-3.0170503,6.2051873,6.713662,0.0065667955,-0.82833254,-0.33612832,-78.075005,89.925,-37.050003,,,,,,,,,,,,,,,,,,,,,,
SENSOR,1789662450047,42180263615028,-1.8843478,6.0676003,7.6755767,0.0065667955,-0.82833254,-0.33612832,-78.075005,89.925,-37.050003,,,,,,,,,,,,,,,,,,,,,,
SENSOR,1789662450107,42180364495810,-1.8843478,6.0676003,7.6755767,0.50457424,-0.7299833,-0.5681042,-78.075005,89.925,-37.050003,,,,,,,,,,,,,,,,,,,,,,
SENSOR,1789662450126,42180374495810,-1.8843478,6.0676003,7.6755767,0.50457424,-0.7299833,-0.5681042,-83.775,80.475006,-34.050003,,,,,,,,,,,,,,,,,,,,,,
SENSOR,1789662450150,42180367801018,-1.9091734,7.2906313,6.8724856,0.50457424,-0.7299833,-0.5681042,-83.775,80.475006,-34.050003,,,,,,,,,,,,,,,,,,,,,,
SENSOR,1789662450203,42180464495810,-1.9091734,7.2906313,6.8724856,0.68737555,-0.49235696,-0.49388412,-83.775,80.475006,-34.050003,,,,,,,,,,,,,,,,,,,,,,
SENSOR,1789662450229,42180474495810,-1.9091734,7.2906313,6.8724856,0.68737555,-0.49235696,-0.49388412,-107.700005,43.5,-44.025,,,,,,,,,,,,,,,,,,,,,,
SENSOR,1789662450255,42180471986955,-2.1975086,6.7698936,6.7722864,0.68737555,-0.49235696,-0.49388412,-107.700005,43.5,-44.025,,,,,,,,,,,,,,,,,,,,,,
SENSOR,1789662450307,42180564495810,-2.1975086,6.7698936,6.7722864,0.37705624,0.09132428,-0.5797106,-107.700005,43.5,-44.025,,,,,,,,,,,,,,,,,,,,,,
SENSOR,1789662450324,42180574495810,-2.1975086,6.7698936,6.7722864,0.37705624,0.09132428,-0.5797106,-108.450005,36.300003,-48.9,,,,,,,,,,,,,,,,,,,,,,
SENSOR,1789662450359,42180576172893,-3.1986058,6.7818575,5.734699,0.37705624,0.09132428,-0.5797106,-108.450005,36.300003,-48.9,,,,,,,,,,,,,,,,,,,,,,
CELLULAR,1789662450387,,,,,,,,,,,,,,,,,,,true,NR,4298047490,405,869,,75,403,634080,-100,NR_SS_RSRP,4,
SENSOR,1789662450411,42180664495810,-3.1986058,6.7818575,5.734699,-0.03726275,-0.0679587,-0.2594648,-108.450005,36.300003,-48.9,,,,,,,,,,,,,,,,,,,,,,
SENSOR,1789662450428,42180674495810,-3.1986058,6.7818575,5.734699,-0.03726275,-0.0679587,-0.2594648,-108.225006,28.050001,-50.550003,,,,,,,,,,,,,,,,,,,,,,
SENSOR,1789662450463,42180680358830,-4.019942,7.6253276,6.101698,-0.03726275,-0.0679587,-0.2594648,-108.225006,28.050001,-50.550003,,,,,,,,,,,,,,,,,,,,,,
SENSOR,1789662450507,42180764495810,-4.019942,7.6253276,6.101698,-0.08918625,0.11560615,0.14431679,-108.225006,28.050001,-50.550003,,,,,,,,,,,,,,,,,,,,,,
SENSOR,1789662450524,42180774495810,-4.019942,7.6253276,6.101698,-0.08918625,0.11560615,0.14431679,-108.825005,31.050001,-49.425003,,,,,,,,,,,,,,,,,,,,,,
SENSOR,1789662450567,42180784544768,-1.873281,6.855736,5.2779684,-0.08918625,0.11560615,0.14431679,-108.825005,31.050001,-49.425003,,,,,,,,,,,,,,,,,,,,,,
SENSOR,1789662450602,42180864495810,-1.873281,6.855736,5.2779684,-0.20967932,0.71654433,-0.15179989,-108.825005,31.050001,-49.425003,,,,,,,,,,,,,,,,,,,,,,
SENSOR,1789662450628,42180874495810,-1.873281,6.855736,5.2779684,-0.20967932,0.71654433,-0.15179989,-106.950005,30.45,-51.225002,,,,,,,,,,,,,,,,,,,,,,
SENSOR,1789662450672,42180888730705,-3.0245278,6.5347986,7.8296146,-0.20967932,0.71654433,-0.15179989,-106.950005,30.45,-51.225002,,,,,,,,,,,,,,,,,,,,,,
SENSOR,1789662450706,42180964495810,-3.0245278,6.5347986,7.8296146,0.46853325,0.057879433,-0.30039272,-106.950005,30.45,-51.225002,,,,,,,,,,,,,,,,,,,,,,
SENSOR,1789662450724,42180974495810,-3.0245278,6.5347986,7.8296146,0.46853325,0.057879433,-0.30039272,-105.75001,25.95,-54.075,,,,,,,,,,,,,,,,,,,,,,
SENSOR,1789662450775,42180992916643,-3.8665023,7.019943,5.654539,0.46853325,0.057879433,-0.30039272,-105.75001,25.95,-54.075,,,,,,,,,,,,,,,,,,,,,,
SENSOR,1789662450801,42181064495810,-3.8665023,7.019943,5.654539,0.13545926,0.22785254,0.024740022,-105.75001,25.95,-54.075,,,,,,,,,,,,,,,,,,,,,,
SENSOR,1789662450828,42181074495810,-3.8665023,7.019943,5.654539,0.13545926,0.22785254,0.024740022,-104.25001,24.0,-57.225002,,,,,,,,,,,,,,,,,,,,,,
SENSOR,1789662450879,42181097102580,-3.792624,7.057032,6.468697,0.13545926,0.22785254,0.024740022,-104.25001,24.0,-57.225002,,,,,,,,,,,,,,,,,,,,,,
GNSS,1789662450903,,,,,,,,,,,true,11.05531437,76.92710555,378.2437744140625,3.7900925,0.0,,97,67,,,,,,,,,,,,,
SENSOR,1789662450922,42181164495810,-3.792624,7.057032,6.468697,0.67332566,0.37033674,0.031459533,-104.25001,24.0,-57.225002,,,,,,,,,,,,,,,,,,,,,,
GNSS,1789662451000,,,,,,,,,,,true,11.05531587,76.9271085,378.5269775390625,3.7900925,0.0,,97,67,,,,,,,,,,,,,
SENSOR,1789662450927,42181174495810,-3.792624,7.057032,6.468697,0.67332566,0.37033674,0.031459533,-102.225006,23.7,-60.675003,,,,,,,,,,,,,,,,,,,,,,
SENSOR,1789662450984,42181201288466,-3.5479577,7.329515,4.1174498,0.67332566,0.37033674,0.031459533,-102.225006,23.7,-60.675003,,,,,,,,,,,,,,,,,,,,,,
SENSOR,1789662451010,42181264495810,-3.5479577,7.329515,4.1174498,-0.2341139,0.18890992,0.019853104,-102.225006,23.7,-60.675003,,,,,,,,,,,,,,,,,,,,,,
SENSOR,1789662451027,42181274495810,-3.5479577,7.329515,4.1174498,-0.2341139,0.18890992,0.019853104,-101.025,23.475,-63.15,,,,,,,,,,,,,,,,,,,,,,
SENSOR,1789662451087,42181305474351,-3.6188452,7.029515,5.9500527,-0.2341139,0.18890992,0.019853104,-101.025,23.475,-63.15,,,,,,,,,,,,,,,,,,,,,,
SENSOR,1789662451105,42181364495810,-3.6188452,7.029515,5.9500527,-0.009162971,0.057421282,-0.11942405,-101.025,23.475,-63.15,,,,,,,,,,,,,,,,,,,,,,
SENSOR,1789662451123,42181374495810,-3.6188452,7.029515,5.9500527,-0.009162971,0.057421282,-0.11942405,-99.37501,23.475,-63.45,,,,,,,,,,,,,,,,,,,,,,
SENSOR,1789662451193,42181409660237,-4.0797625,7.20778,5.224429,-0.009162971,0.057421282,-0.11942405,-99.37501,23.475,-63.45,,,,,,,,,,,,,,,,,,,,,,
SENSOR,1789662451211,42181464495810,-4.0797625,7.20778,5.224429,-0.15210532,0.08567378,-0.038637195,-99.37501,23.475,-63.45,,,,,,,,,,,,,,,,,,,,,,
SENSOR,1789662451227,42181474495810,-4.0797625,7.20778,5.224429,-0.15210532,0.08567378,-0.038637195,-99.600006,22.725,-63.375004,,,,,,,,,,,,,,,,,,,,,,
SENSOR,1789662451296,42181513846122,-4.208377,6.910472,5.776573,-0.15210532,0.08567378,-0.038637195,-99.600006,22.725,-63.375004,,,,,,,,,,,,,,,,,,,,,,
SENSOR,1789662451305,42181564495810,-4.208377,6.910472,5.776573,-0.06841685,0.041080654,6.108647E-4,-99.600006,22.725,-63.375004,,,,,,,,,,,,,,,,,,,,,,
SENSOR,1789662451323,42181574495810,-4.208377,6.910472,5.776573,-0.06841685,0.041080654,6.108647E-4,-99.3,23.025002,-62.250004,,,,,,,,,,,,,,,,,,,,,,
SENSOR,1789662451400,42181618032007,-4.178766,6.9149585,5.8130636,-0.06841685,0.041080654,6.108647E-4,-99.3,23.025002,-62.250004,,,,,,,,,,,,,,,,,,,,,,
SENSOR,1789662451409,42181664495810,-4.178766,6.9149585,5.8130636,0.073609196,0.0018325942,0.032681264,-99.3,23.025002,-62.250004,,,,,,,,,,,,,,,,,,,,,,
CELLULAR,1789662451412,,,,,,,,,,,,,,,,,,,true,NR,4298047490,405,869,,75,403,634080,-100,NR_SS_RSRP,4,
SENSOR,1789662451437,42181674495810,-4.178766,6.9149585,5.8130636,0.073609196,0.0018325942,0.032681264,-98.775,23.025002,-62.625004,,,,,,,,,,,,,,,,,,,,,,
SENSOR,1789662451505,42181764495810,-4.178766,6.9149585,5.8130636,-0.070554875,0.051007204,0.04566214,-98.775,23.025002,-62.625004,,,,,,,,,,,,,,,,,,,,,,
SENSOR,1789662451506,42181722217893,-4.0498524,7.001698,5.2489557,-0.070554875,0.051007204,0.04566214,-98.775,23.025002,-62.625004,,,,,,,,,,,,,,,,,,,,,,
SENSOR,1789662451523,42181774495810,-4.0498524,7.001698,5.2489557,-0.070554875,0.051007204,0.04566214,-99.00001,23.85,-63.225002,,,,,,,,,,,,,,,,,,,,,,
SENSOR,1789662451609,42181864495810,-4.0498524,7.001698,5.2489557,0.023060143,0.07406735,-0.105374165,-99.00001,23.85,-63.225002,,,,,,,,,,,,,,,,,,,,,,
SENSOR,1789662451609,42181826403726,-3.9041893,6.8602223,5.741877,0.023060143,0.07406735,-0.105374165,-99.00001,23.85,-63.225002,,,,,,,,,,,,,,,,,,,,,,
SENSOR,1789662451627,42181874495810,-3.9041893,6.8602223,5.741877,0.023060143,0.07406735,-0.105374165,-98.025,22.875,-63.9,,,,,,,,,,,,,,,,,,,,,,
SENSOR,1789662451705,42181964495810,-3.9041893,6.8602223,5.741877,0.06398808,-0.035735585,-0.015271618,-98.025,22.875,-63.9,,,,,,,,,,,,,,,,,,,,,,
SENSOR,1789662451713,42181930589560,-4.397709,6.975078,5.5169516,0.06398808,-0.035735585,-0.015271618,-98.025,22.875,-63.9,,,,,,,,,,,,,,,,,,,,,,
SENSOR,1789662451722,42181974495810,-4.397709,6.975078,5.5169516,0.06398808,-0.035735585,-0.015271618,-98.025,22.2,-64.350006,,,,,,,,,,,,,,,,,,,,,,
SENSOR,1789662451808,42182064495810,-4.397709,6.975078,5.5169516,-0.01679878,-0.0160352,-0.0087048225,-98.025,22.2,-64.350006,,,,,,,,,,,,,,,,,,,,,,
SENSOR,1789662451816,42182034775445,-4.1874394,6.9245296,5.52084,-0.01679878,-0.0160352,-0.0087048225,-98.025,22.2,-64.350006,,,,,,,,,,,,,,,,,,,,,,
SENSOR,1789662451826,42182074495810,-4.1874394,6.9245296,5.52084,-0.01679878,-0.0160352,-0.0087048225,-97.725006,22.2,-65.700005,,,,,,,,,,,,,,,,,,,,,,
GNSS,1789662451903,,,,,,,,,,,true,11.05531587,76.9271085,378.5269775390625,3.7900925,0.0,,97,67,,,,,,,,,,,,,
SENSOR,1789662451917,42182164495810,-4.1874394,6.9245296,5.52084,-0.0018325942,0.0584903,-0.052228935,-97.725006,22.2,-65.700005,,,,,,,,,,,,,,,,,,,,,,
GNSS,1789662452000,,,,,,,,,,,true,11.05531765,76.92711182,379.0181884765625,3.7900925,0.0,,97,67,,,,,,,,,,,,,
SENSOR,1789662451921,42182174495810,-4.1874394,6.9245296,5.52084,-0.0018325942,0.0584903,-0.052228935,-97.950005,22.050001,-64.125,,,,,,,,,,,,,,,,,,,,,,
SENSOR,1789662451922,42182138961278,-4.147061,6.9056864,5.513961,-0.0018325942,0.0584903,-0.052228935,-97.950005,22.050001,-64.125,,,,,,,,,,,,,,,,,,,,,,
SENSOR,1789662452008,42182264495810,-4.147061,6.9056864,5.513961,-0.09269872,0.024281872,-0.023518292,-97.950005,22.050001,-64.125,,,,,,,,,,,,,,,,,,,,,,
SENSOR,1789662452026,42182243147112,-4.366303,6.895816,5.432605,-0.09269872,0.024281872,-0.023518292,-97.950005,22.050001,-64.125,,,,,,,,,,,,,,,,,,,,,,
SENSOR,1789662452027,42182274495810,-4.366303,6.895816,5.432605,-0.09269872,0.024281872,-0.023518292,-98.100006,21.75,-63.600002,,,,,,,,,,,,,,,,,,,,,,
SENSOR,1789662452103,42182364495810,-4.366303,6.895816,5.432605,-0.04077522,0.026878048,0.05589412,-98.100006,21.75,-63.600002,,,,,,,,,,,,,,,,,,,,,,
SENSOR,1789662452135,42182347332893,-4.3441696,6.851249,5.6207404,-0.04077522,0.026878048,0.05589412,-98.100006,21.75,-63.600002,,,,,,,,,,,,,,,,,,,,,,
SENSOR,1789662452135,42182374495810,-4.3441696,6.851249,5.6207404,-0.04077522,0.026878048,0.05589412,-96.9,21.975,-66.15,,,,,,,,,,,,,,,,,,,,,,
SENSOR,1789662452208,42182464495810,-4.3441696,6.851249,5.6207404,-0.011453713,0.028863357,0.009621119,-96.9,21.975,-66.15,,,,,,,,,,,,,,,,,,,,,,
SENSOR,1789662452226,42182474495810,-4.3441696,6.851249,5.6207404,-0.011453713,0.028863357,0.009621119,-97.425,22.5,-64.725006,,,,,,,,,,,,,,,,,,,,,,
SENSOR,1789662452234,42182451518726,-4.052245,6.823134,5.4550376,-0.011453713,0.028863357,0.009621119,-97.425,22.5,-64.725006,,,,,,,,,,,,,,,,,,,,,,
SENSOR,1789662452304,42182564495810,-4.052245,6.823134,5.4550376,0.0054977825,0.09834922,-0.09422588,-97.425,22.5,-64.725006,,,,,,,,,,,,,,,,,,,,,,
SENSOR,1789662452330,42182574495810,-4.052245,6.823134,5.4550376,0.0054977825,0.09834922,-0.09422588,-97.275,22.125,-65.850006,,,,,,,,,,,,,,,,,,,,,,
SENSOR,1789662452338,42182555704507,-4.36062,6.817451,5.7616177,0.0054977825,0.09834922,-0.09422588,-97.275,22.125,-65.850006,,,,,,,,,,,,,,,,,,,,,,
SENSOR,1789662452407,42182664495810,-4.36062,6.817451,5.7616177,0.05406153,-0.029321507,0.023518292,-97.275,22.125,-65.850006,,,,,,,,,,,,,,,,,,,,,,
SENSOR,1789662452426,42182674495810,-4.36062,6.817451,5.7616177,0.05406153,-0.029321507,0.023518292,-97.200005,21.300001,-65.700005,,,,,,,,,,,,,,,,,,,,,,
CELLULAR,1789662452437,,,,,,,,,,,,,,,,,,,true,NR,4298047490,405,869,,75,403,634080,-100,NR_SS_RSRP,4,
SENSOR,1789662452464,42182659890341,-4.660919,6.8832536,5.2980084,0.05406153,-0.029321507,0.023518292,-97.200005,21.300001,-65.700005,,,,,,,,,,,,,,,,,,,,,,
SENSOR,1789662452504,42182764495810,-4.660919,6.8832536,5.2980084,-0.04566214,0.043371394,0.07162389,-97.200005,21.300001,-65.700005,,,,,,,,,,,,,,,,,,,,,,
SENSOR,1789662452529,42182774495810,-4.660919,6.8832536,5.2980084,-0.04566214,0.043371394,0.07162389,-96.825005,22.425001,-66.975006,,,,,,,,,,,,,,,,,,,,,,
SENSOR,1789662452546,42182764076122,-4.1294136,6.7878394,5.599803,-0.04566214,0.043371394,0.07162389,-96.825005,22.425001,-66.975006,,,,,,,,,,,,,,,,,,,,,,
SENSOR,1789662452607,42182864495810,-4.1294136,6.7878394,5.599803,-0.012980876,0.069027714,-0.090866126,-96.825005,22.425001,-66.975006,,,,,,,,,,,,,,,,,,,,,,
SENSOR,1789662452625,42182874495810,-4.1294136,6.7878394,5.599803,-0.012980876,0.069027714,-0.090866126,-97.12501,21.6,-64.950005,,,,,,,,,,,,,,,,,,,,,,
SENSOR,1789662452651,42182868261903,-4.345665,6.832406,5.4960146,-0.012980876,0.069027714,-0.090866126,-97.12501,21.6,-64.950005,,,,,,,,,,,,,,,,,,,,,,
SENSOR,1789662452703,42182964495810,-4.345665,6.832406,5.4960146,0.015424334,0.01557705,-0.00839939,-97.12501,21.6,-64.950005,,,,,,,,,,,,,,,,,,,,,,
SENSOR,1789662452729,42182974495810,-4.345665,6.832406,5.4960146,0.015424334,0.01557705,-0.00839939,-96.975006,20.7,-65.475006,,,,,,,,,,,,,,,,,,,,,,
SENSOR,1789662452755,42182972447685,-4.61067,6.8255267,5.4873405,0.015424334,0.01557705,-0.00839939,-96.975006,20.7,-65.475006,,,,,,,,,,,,,,,,,,,,,,
SENSOR,1789662452807,42183064495810,-4.61067,6.8255267,5.4873405,0.005345066,-0.010537417,0.025656318,-96.975006,20.7,-65.475006,,,,,,,,,,,,,,,,,,,,,,
SENSOR,1789662452825,42183074495810,-4.61067,6.8255267,5.4873405,0.005345066,-0.010537417,0.025656318,-97.05,21.150002,-65.850006,,,,,,,,,,,,,,,,,,,,,,
SENSOR,1789662452860,42183076633414,-4.3354955,6.808777,5.4332027,0.005345066,-0.010537417,0.025656318,-97.05,21.150002,-65.850006,,,,,,,,,,,,,,,,,,,,,,
SENSOR,1789662452903,42183164495810,-4.3354955,6.808777,5.4332027,-0.016646063,0.05146535,-0.027336197,-97.05,21.150002,-65.850006,,,,,,,,,,,,,,,,,,,,,,
GNSS,1789662452905,,,,,,,,,,,true,11.05531765,76.92711182,379.0181884765625,3.7900925,0.0,,97,69,,,,,,,,,,,,,
GNSS,1789662453000,,,,,,,,,,,true,11.05531799,76.92711325,379.34100341796875,3.7900925,0.0,,97,69,,,,,,,,,,,,,
SENSOR,1789662452929,42183174495810,-4.3354955,6.808777,5.4332027,-0.016646063,0.05146535,-0.027336197,-96.600006,21.0,-66.15,,,,,,,,,,,,,,,,,,,,,,
SENSOR,1789662452964,42183180819195,-4.4874396,6.7872415,5.573482,-0.016646063,0.05146535,-0.027336197,-96.600006,21.0,-66.15,,,,,,,,,,,,,,,,,,,,,,
SENSOR,1789662453007,42183264495810,-4.4874396,6.7872415,5.573482,0.016951496,-0.003359756,0.0068722283,-96.600006,21.0,-66.15,,,,,,,,,,,,,,,,,,,,,,
SENSOR,1789662453025,42183274495810,-4.4874396,6.7872415,5.573482,0.016951496,-0.003359756,0.0068722283,-96.825005,20.85,-66.15,,,,,,,,,,,,,,,,,,,,,,
SENSOR,1789662453068,42183285004924,-4.4458647,6.841977,5.3500524,0.016951496,-0.003359756,0.0068722283,-96.825005,20.85,-66.15,,,,,,,,,,,,,,,,,,,,,,
