stream_type,timestamp_ms,sensor_nanos,accel_x,accel_y,accel_z,gyro_x,gyro_y,gyro_z,mag_x,mag_y,mag_z,has_fix,latitude,longitude,altitude,accuracy,speed,bearing,sats_view,sats_used,registered,cell_type,cell_id,mcc,mnc,lac,tac,pci,arfcn,signal_dbm,signal_metric,signal_level,operator
SENSOR,1789661149298,40879545453125,,,,0.0,3.0543236E-4,3.0543236E-4,,,,,,,,,,,,,,,,,,,,,
SENSOR,1789661149299,40879539496303,0.15014961,0.20638095,9.862916,0.0,3.0543236E-4,3.0543236E-4,,,,,,,,,,,,,,,,,,,,,
SENSOR,1789661149299,40879554496303,0.15014961,0.20638095,9.862916,0.0,1.5271618E-4,1.5271618E-4,,,,,,,,,,,,,,,,,,,,,
CELLULAR,1789661149305,,,,,,,,,,,,,,true,NR,4298047490,405,869,,75,403,634080,-109,NR_SS_RSRP,3,
SENSOR,1789661149318,40879564496194,0.15014961,0.20638095,9.862916,0.0,1.5271618E-4,1.5271618E-4,-47.4,4.5,3.525,,,,,,,,,,,,,,,,,,
GNSS,1789661149299,,true,11.0554049,76.9271175,374.70001220703125,86.157,,,0,0,,,,,,,,,,,,,
SENSOR,1789661149385,40879559496246,0.15882361,0.20219351,9.862019,0.0,1.5271618E-4,1.5271618E-4,-47.4,4.5,3.525,,,,,,,,,,,,,,,,,,
SENSOR,1789661149385,40879579496246,0.15672988,0.20608185,9.870692,0.0,1.5271618E-4,1.5271618E-4,-47.4,4.5,3.525,,,,,,,,,,,,,,,,,,
SENSOR,1789661149386,40879599496246,0.15314065,0.20458634,9.870692,0.0,1.5271618E-4,1.5271618E-4,-47.4,4.5,3.525,,,,,,,,,,,,,,,,,,
SENSOR,1789661149386,40879619496246,0.15493527,0.19860429,9.871889,0.0,1.5271618E-4,1.5271618E-4,-47.4,4.5,3.525,,,,,,,,,,,,,,,,,,
SENSOR,1789661149394,40879654496246,0.15493527,0.19860429,9.871889,0.0,3.0543236E-4,3.0543236E-4,-47.4,4.5,3.525,,,,,,,,,,,,,,,,,,
SENSOR,1789661149412,40879664496246,0.15493527,0.19860429,9.871889,0.0,3.0543236E-4,3.0543236E-4,-49.575,4.275,7.3500004,,,,,,,,,,,,,,,,,,
SENSOR,1789661149481,40879639496246,0.15672988,0.20189442,9.868001,0.0,3.0543236E-4,3.0543236E-4,-49.575,4.275,7.3500004,,,,,,,,,,,,,,,,,,
SENSOR,1789661149481,40879659496246,0.1576272,0.20518455,9.862916,0.0,3.0543236E-4,3.0543236E-4,-49.575,4.275,7.3500004,,,,,,,,,,,,,,,,,,
SENSOR,1789661149482,40879679496246,0.1582254,0.19950159,9.865309,0.0,3.0543236E-4,3.0543236E-4,-49.575,4.275,7.3500004,,,,,,,,,,,,,,,,,,
SENSOR,1789661149482,40879699496246,0.15792629,0.20338993,9.860523,0.0,3.0543236E-4,3.0543236E-4,-49.575,4.275,7.3500004,,,,,,,,,,,,,,,,,,
SENSOR,1789661149482,40879719496246,0.15732808,0.20039889,9.866505,0.0,3.0543236E-4,3.0543236E-4,-49.575,4.275,7.3500004,,,,,,,,,,,,,,,,,,
SENSOR,1789661149482,40879739496246,0.15643078,0.20189442,9.866804,0.0,3.0543236E-4,3.0543236E-4,-49.575,4.275,7.3500004,,,,,,,,,,,,,,,,,,
SENSOR,1789661149499,40879754496246,0.15643078,0.20189442,9.866804,0.0,3.0543236E-4,-9.162971E-4,-49.575,4.275,7.3500004,,,,,,,,,,,,,,,,,,
SENSOR,1789661149517,40879764496246,0.15643078,0.20189442,9.866804,0.0,3.0543236E-4,-9.162971E-4,-49.275,4.125,6.9,,,,,,,,,,,,,,,,,,
SENSOR,1789661149585,40879759496246,0.15643078,0.20847467,9.87159,0.0,3.0543236E-4,-9.162971E-4,-49.275,4.125,6.9,,,,,,,,,,,,,,,,,,
SENSOR,1789661149585,40879779496246,0.15433706,0.200698,9.867104,0.0,3.0543236E-4,-9.162971E-4,-49.275,4.125,6.9,,,,,,,,,,,,,,,,,,
SENSOR,1789661149585,40879799496246,0.15702899,0.20189442,9.870692,0.0,3.0543236E-4,-9.162971E-4,-49.275,4.125,6.9,,,,,,,,,,,,,,,,,,
SENSOR,1789661149585,40879819496246,0.15403795,0.200698,9.865907,0.0,3.0543236E-4,-9.162971E-4,-49.275,4.125,6.9,,,,,,,,,,,,,,,,,,
SENSOR,1789661149594,40879854496246,0.15403795,0.200698,9.865907,0.0,-1.5271618E-4,3.0543236E-4,-49.275,4.125,6.9,,,,,,,,,,,,,,,,,,
SENSOR,1789661149612,40879864496246,0.15403795,0.200698,9.865907,0.0,-1.5271618E-4,3.0543236E-4,-50.025,3.9,7.1250005,,,,,,,,,,,,,,,,,,
SENSOR,1789661149682,40879839496246,0.16031912,0.19920248,9.864711,0.0,-1.5271618E-4,3.0543236E-4,-50.025,3.9,7.1250005,,,,,,,,,,,,,,,,,,
SENSOR,1789661149682,40879859496246,0.15732808,0.20608185,9.870692,0.0,-1.5271618E-4,3.0543236E-4,-50.025,3.9,7.1250005,,,,,,,,,,,,,,,,,,
SENSOR,1789661149682,40879879496246,0.15523437,0.20638095,9.8682995,0.0,-1.5271618E-4,3.0543236E-4,-50.025,3.9,7.1250005,,,,,,,,,,,,,,,,,,
SENSOR,1789661149682,40879899496246,0.16151553,0.20129621,9.863514,0.0,-1.5271618E-4,3.0543236E-4,-50.025,3.9,7.1250005,,,,,,,,,,,,,,,,,,
SENSOR,1789661149683,40879919496246,0.15284155,0.19710876,9.858429,0.0,-1.5271618E-4,3.0543236E-4,-50.025,3.9,7.1250005,,,,,,,,,,,,,,,,,,
SENSOR,1789661149683,40879939496246,0.15882361,0.20219351,9.8682995,0.0,-1.5271618E-4,3.0543236E-4,-50.025,3.9,7.1250005,,,,,,,,,,,,,,,,,,
SENSOR,1789661149699,40879954496246,0.15882361,0.20219351,9.8682995,0.0,3.0543236E-4,3.0543236E-4,-50.025,3.9,7.1250005,,,,,,,,,,,,,,,,,,
SENSOR,1789661149716,40879964496246,0.15882361,0.20219351,9.8682995,0.0,3.0543236E-4,3.0543236E-4,-49.725002,3.7500002,7.3500004,,,,,,,,,,,,,,,,,,
SENSOR,1789661149783,40879959496246,0.15493527,0.19860429,9.867104,0.0,3.0543236E-4,3.0543236E-4,-49.725002,3.7500002,7.3500004,,,,,,,,,,,,,,,,,,
SENSOR,1789661149784,40879979496246,0.15732808,0.20668006,9.863813,0.0,3.0543236E-4,3.0543236E-4,-49.725002,3.7500002,7.3500004,,,,,,,,,,,,,,,,,,
SENSOR,1789661149784,40879999496246,0.15583257,0.19860429,9.864711,0.0,3.0543236E-4,3.0543236E-4,-49.725002,3.7500002,7.3500004,,,,,,,,,,,,,,,,,,
SENSOR,1789661149784,40880019496246,0.15613168,0.19980069,9.865009,0.0,3.0543236E-4,3.0543236E-4,-49.725002,3.7500002,7.3500004,,,,,,,,,,,,,,,,,,
SENSOR,1789661149794,40880054496246,0.15613168,0.19980069,9.865009,0.0,-1.5271618E-4,3.0543236E-4,-49.725002,3.7500002,7.3500004,,,,,,,,,,,,,,,,,,
SENSOR,1789661149811,40880064496246,0.15613168,0.19980069,9.865009,0.0,-1.5271618E-4,3.0543236E-4,-49.95,3.45,6.525,,,,,,,,,,,,,,,,,,
SENSOR,1789661149884,40880039496246,0.15314065,0.20189442,9.865907,0.0,-1.5271618E-4,3.0543236E-4,-49.95,3.45,6.525,,,,,,,,,,,,,,,,,,
SENSOR,1789661149884,40880059496246,0.15613168,0.20279172,9.869197,0.0,-1.5271618E-4,3.0543236E-4,-49.95,3.45,6.525,,,,,,,,,,,,,,,,,,
SENSOR,1789661149884,40880079496246,0.15523437,0.20309082,9.863813,0.0,-1.5271618E-4,3.0543236E-4,-49.95,3.45,6.525,,,,,,,,,,,,,,,,,,
SENSOR,1789661149885,40880099496246,0.1576272,0.20219351,9.866505,0.0,-1.5271618E-4,3.0543236E-4,-49.95,3.45,6.525,,,,,,,,,,,,,,,,,,
SENSOR,1789661149885,40880119496246,0.15433706,0.20309082,9.862318,0.0,-1.5271618E-4,3.0543236E-4,-49.95,3.45,6.525,,,,,,,,,,,,,,,,,,
SENSOR,1789661149899,40880154496246,0.15433706,0.20309082,9.862318,0.0,3.0543236E-4,3.0543236E-4,-49.95,3.45,6.525,,,,,,,,,,,,,,,,,,
SENSOR,1789661149916,40880164496246,0.15433706,0.20309082,9.862318,0.0,3.0543236E-4,3.0543236E-4,-50.100002,4.05,7.9500003,,,,,,,,,,,,,,,,,,
SENSOR,1789661149984,40880139496246,0.15972091,0.20428723,9.864711,0.0,3.0543236E-4,3.0543236E-4,-50.100002,4.05,7.9500003,,,,,,,,,,,,,,,,,,
SENSOR,1789661149984,40880159496246,0.15643078,0.20967108,9.865309,0.0,3.0543236E-4,3.0543236E-4,-50.100002,4.05,7.9500003,,,,,,,,,,,,,,,,,,
SENSOR,1789661149984,40880179496246,0.15732808,0.20279172,9.864112,0.0,3.0543236E-4,3.0543236E-4,-50.100002,4.05,7.9500003,,,,,,,,,,,,,,,,,,
SENSOR,1789661149984,40880199496246,0.15732808,0.20428723,9.866505,0.0,3.0543236E-4,3.0543236E-4,-50.100002,4.05,7.9500003,,,,,,,,,,,,,,,,,,
SENSOR,1789661149984,40880219496246,0.15882361,0.20219351,9.869197,0.0,3.0543236E-4,3.0543236E-4,-50.100002,4.05,7.9500003,,,,,,,,,,,,,,,,,,
SENSOR,1789661149993,40880254496246,0.15882361,0.20219351,9.869197,0.0,3.0543236E-4,-6.108647E-4,-50.100002,4.05,7.9500003,,,,,,,,,,,,,,,,,,
SENSOR,1789661150011,40880264496246,0.15882361,0.20219351,9.869197,0.0,3.0543236E-4,-6.108647E-4,-49.800003,3.825,8.025001,,,,,,,,,,,,,,,,,,
SENSOR,1789661150085,40880239496246,0.15702899,0.20787647,9.868001,0.0,3.0543236E-4,-6.108647E-4,-49.800003,3.825,8.025001,,,,,,,,,,,,,,,,,,
SENSOR,1789661150085,40880259496246,0.15643078,0.19980069,9.862617,0.0,3.0543236E-4,-6.108647E-4,-49.800003,3.825,8.025001,,,,,,,,,,,,,,,,,,
SENSOR,1789661150085,40880279496246,0.15463616,0.20877378,9.860523,0.0,3.0543236E-4,-6.108647E-4,-49.800003,3.825,8.025001,,,,,,,,,,,,,,,,,,
SENSOR,1789661150086,40880299496246,0.15972091,0.20338993,9.866206,0.0,3.0543236E-4,-6.108647E-4,-49.800003,3.825,8.025001,,,,,,,,,,,,,,,,,,
SENSOR,1789661150086,40880319496246,0.15553348,0.19800608,9.862916,0.0,3.0543236E-4,-6.108647E-4,-49.800003,3.825,8.025001,,,,,,,,,,,,,,,,,,
SENSOR,1789661150098,40880354496246,0.15553348,0.19800608,9.862916,-9.162971E-4,3.0543236E-4,-7.635809E-4,-49.800003,3.825,8.025001,,,,,,,,,,,,,,,,,,
SENSOR,1789661150116,40880364496246,0.15553348,0.19800608,9.862916,-9.162971E-4,3.0543236E-4,-7.635809E-4,-49.2,3.825,7.05,,,,,,,,,,,,,,,,,,
SENSOR,1789661150186,40880339496246,0.15463616,0.19980069,9.870394,-9.162971E-4,3.0543236E-4,-7.635809E-4,-49.2,3.825,7.05,,,,,,,,,,,,,,,,,,
SENSOR,1789661150186,40880359496246,0.15672988,0.20039889,9.864112,-9.162971E-4,3.0543236E-4,-7.635809E-4,-49.2,3.825,7.05,,,,,,,,,,,,,,,,,,
SENSOR,1789661150186,40880379496246,0.15523437,0.20279172,9.868599,-9.162971E-4,3.0543236E-4,-7.635809E-4,-49.2,3.825,7.05,,,,,,,,,,,,,,,,,,
SENSOR,1789661150186,40880399496246,0.15732808,0.20279172,9.869197,-9.162971E-4,3.0543236E-4,-7.635809E-4,-49.2,3.825,7.05,,,,,,,,,,,,,,,,,,
SENSOR,1789661150186,40880419496246,0.15882361,0.20458634,9.867402,-9.162971E-4,3.0543236E-4,-7.635809E-4,-49.2,3.825,7.05,,,,,,,,,,,,,,,,,,
SENSOR,1789661150193,40880454496246,0.15882361,0.20458634,9.867402,0.0,-0.0,3.0543236E-4,-49.2,3.825,7.05,,,,,,,,,,,,,,,,,,
SENSOR,1789661150221,40880464496246,0.15882361,0.20458634,9.867402,0.0,-0.0,3.0543236E-4,-49.2,3.9,7.2000003,,,,,,,,,,,,,,,,,,
SENSOR,1789661150285,40880439496246,0.15643078,0.20279172,9.865309,0.0,-0.0,3.0543236E-4,-49.2,3.9,7.2000003,,,,,,,,,,,,,,,,,,
SENSOR,1789661150285,40880459496246,0.15314065,0.20368902,9.87159,0.0,-0.0,3.0543236E-4,-49.2,3.9,7.2000003,,,,,,,,,,,,,,,,,,
SENSOR,1789661150285,40880479496246,0.15732808,0.20039889,9.863813,0.0,-0.0,3.0543236E-4,-49.2,3.9,7.2000003,,,,,,,,,,,,,,,,,,
SENSOR,1789661150285,40880499496246,0.1582254,0.20338993,9.864112,0.0,-0.0,3.0543236E-4,-49.2,3.9,7.2000003,,,,,,,,,,,,,,,,,,
SENSOR,1789661150286,40880519496246,0.15463616,0.19890338,9.861121,0.0,-0.0,3.0543236E-4,-49.2,3.9,7.2000003,,,,,,,,,,,,,,,,,,
SENSOR,1789661150297,40880554496246,0.15463616,0.19890338,9.861121,0.0,-0.0,3.0543236E-4,-49.2,3.9,7.2000003,,,,,,,,,,,,,,,,,,
SENSOR,1789661150319,40880564496246,0.15463616,0.19890338,9.861121,0.0,-0.0,3.0543236E-4,-49.2,3.825,6.7500005,,,,,,,,,,,,,,,,,,
CELLULAR,1789661150319,,,,,,,,,,,,,,true,NR,4298047490,405,869,,75,403,634080,-109,NR_SS_RSRP,3,
GNSS,1789661150348,,true,11.0554049,76.9271175,374.70001220703125,86.157,,,53,0,,,,,,,,,,,,,
GNSS,1789661149918,,true,11.05530741,76.92707597,374.332275390625,9.012087,0.0,,53,0,,,,,,,,,,,,,
SENSOR,1789661150383,40880539496246,0.1576272,0.20697916,9.867402,0.0,-0.0,3.0543236E-4,-49.2,3.825,6.7500005,,,,,,,,,,,,,,,,,,
SENSOR,1789661150384,40880559496246,0.1591227,0.20697916,9.861421,0.0,-0.0,3.0543236E-4,-49.2,3.825,6.7500005,,,,,,,,,,,,,,,,,,
SENSOR,1789661150384,40880579496246,0.15373886,0.200698,9.869197,0.0,-0.0,3.0543236E-4,-49.2,3.825,6.7500005,,,,,,,,,,,,,,,,,,
SENSOR,1789661150384,40880599496246,0.1582254,0.19680966,9.867702,0.0,-0.0,3.0543236E-4,-49.2,3.825,6.7500005,,,,,,,,,,,,,,,,,,
SENSOR,1789661150384,40880619496246,0.15493527,0.20129621,9.862617,0.0,-0.0,3.0543236E-4,-49.2,3.825,6.7500005,,,,,,,,,,,,,,,,,,
SENSOR,1789661150393,40880654496246,0.15493527,0.20129621,9.862617,-3.0543236E-4,3.0543236E-4,3.0543236E-4,-49.2,3.825,6.7500005,,,,,,,,,,,,,,,,,,
SENSOR,1789661150419,40880664496246,0.15493527,0.20129621,9.862617,-3.0543236E-4,3.0543236E-4,3.0543236E-4,-49.800003,3.45,8.325001,,,,,,,,,,,,,,,,,,
SENSOR,1789661150485,40880639496246,0.15403795,0.20638095,9.8682995,-3.0543236E-4,3.0543236E-4,3.0543236E-4,-49.800003,3.45,8.325001,,,,,,,,,,,,,,,,,,
SENSOR,1789661150485,40880659496246,0.1582254,0.20309082,9.872188,-3.0543236E-4,3.0543236E-4,3.0543236E-4,-49.800003,3.45,8.325001,,,,,,,,,,,,,,,,,,
SENSOR,1789661150485,40880679496246,0.15972091,0.20638095,9.865608,-3.0543236E-4,3.0543236E-4,3.0543236E-4,-49.800003,3.45,8.325001,,,,,,,,,,,,,,,,,,
SENSOR,1789661150485,40880699496246,0.1582254,0.20488544,9.869795,-3.0543236E-4,3.0543236E-4,3.0543236E-4,-49.800003,3.45,8.325001,,,,,,,,,,,,,,,,,,
SENSOR,1789661150486,40880719496246,0.15732808,0.19980069,9.868599,-3.0543236E-4,3.0543236E-4,3.0543236E-4,-49.800003,3.45,8.325001,,,,,,,,,,,,,,,,,,
SENSOR,1789661150497,40880754496246,0.15732808,0.19980069,9.868599,0.0,3.0543236E-4,3.0543236E-4,-49.800003,3.45,8.325001,,,,,,,,,,,,,,,,,,
SENSOR,1789661150515,40880764496246,0.15732808,0.19980069,9.868599,0.0,3.0543236E-4,3.0543236E-4,-50.025,4.05,7.425,,,,,,,,,,,,,,,,,,
SENSOR,1789661150584,40880739496246,0.15523437,0.20189442,9.865009,0.0,3.0543236E-4,3.0543236E-4,-50.025,4.05,7.425,,,,,,,,,,,,,,,,,,
SENSOR,1789661150585,40880759496246,0.15553348,0.20458634,9.869197,0.0,3.0543236E-4,3.0543236E-4,-50.025,4.05,7.425,,,,,,,,,,,,,,,,,,
SENSOR,1789661150585,40880779496246,0.15553348,0.19740787,9.865309,0.0,3.0543236E-4,3.0543236E-4,-50.025,4.05,7.425,,,,,,,,,,,,,,,,,,
SENSOR,1789661150585,40880799496246,0.1585245,0.20398813,9.863514,0.0,3.0543236E-4,3.0543236E-4,-50.025,4.05,7.425,,,,,,,,,,,,,,,,,,
SENSOR,1789661150585,40880819496246,0.1594218,0.19950159,9.858728,0.0,3.0543236E-4,3.0543236E-4,-50.025,4.05,7.425,,,,,,,,,,,,,,,,,,
SENSOR,1789661150593,40880854496246,0.1594218,0.19950159,9.858728,0.0,3.0543236E-4,3.0543236E-4,-50.025,4.05,7.425,,,,,,,,,,,,,,,,,,
SENSOR,1789661150619,40880864496246,0.1594218,0.19950159,9.858728,0.0,3.0543236E-4,3.0543236E-4,-49.65,3.6750002,7.3500004,,,,,,,,,,,,,,,,,,
SENSOR,1789661150684,40880839496246,0.15314065,0.20638095,9.859626,0.0,3.0543236E-4,3.0543236E-4,-49.65,3.6750002,7.3500004,,,,,,,,,,,,,,,,,,
SENSOR,1789661150685,40880859496246,0.15463616,0.20219351,9.866505,0.0,3.0543236E-4,3.0543236E-4,-49.65,3.6750002,7.3500004,,,,,,,,,,,,,,,,,,
SENSOR,1789661150685,40880879496246,0.1576272,0.2015953,9.862617,0.0,3.0543236E-4,3.0543236E-4,-49.65,3.6750002,7.3500004,,,,,,,,,,,,,,,,,,
SENSOR,1789661150685,40880899496246,0.15792629,0.20997019,9.863514,0.0,3.0543236E-4,3.0543236E-4,-49.65,3.6750002,7.3500004,,,,,,,,,,,,,,,,,,
SENSOR,1789661150685,40880919496246,0.15583257,0.19531415,9.860822,0.0,3.0543236E-4,3.0543236E-4,-49.65,3.6750002,7.3500004,,,,,,,,,,,,,,,,,,
SENSOR,1789661150697,40880954496246,0.15583257,0.19531415,9.860822,0.0,-1.5271618E-4,3.0543236E-4,-49.65,3.6750002,7.3500004,,,,,,,,,,,,,,,,,,
SENSOR,1789661150715,40880964496246,0.15583257,0.19531415,9.860822,0.0,-1.5271618E-4,3.0543236E-4,-49.725002,3.45,8.025001,,,,,,,,,,,,,,,,,,
SENSOR,1789661150785,40880939496246,0.15403795,0.2108675,9.872487,0.0,-1.5271618E-4,3.0543236E-4,-49.725002,3.45,8.025001,,,,,,,,,,,,,,,,,,
SENSOR,1789661150785,40880959496246,0.16002001,0.19651055,9.868599,0.0,-1.5271618E-4,3.0543236E-4,-49.725002,3.45,8.025001,,,,,,,,,,,,,,,,,,
SENSOR,1789661150786,40880979496246,0.15672988,0.21595225,9.873684,0.0,-1.5271618E-4,3.0543236E-4,-49.725002,3.45,8.025001,,,,,,,,,,,,,,,,,,
SENSOR,1789661150786,40880999496246,0.16091733,0.19471595,9.869197,0.0,-1.5271618E-4,3.0543236E-4,-49.725002,3.45,8.025001,,,,,,,,,,,,,,,,,,
SENSOR,1789661150786,40881019496246,0.15972091,0.20847467,9.868001,0.0,-1.5271618E-4,3.0543236E-4,-49.725002,3.45,8.025001,,,,,,,,,,,,,,,,,,
SENSOR,1789661150786,40881039496246,0.15732808,0.212363,9.872487,0.0,-1.5271618E-4,3.0543236E-4,-49.725002,3.45,8.025001,,,,,,,,,,,,,,,,,,
SENSOR,1789661150792,40881054496246,0.15732808,0.212363,9.872487,-0.0012217294,0.0012217294,3.0543236E-4,-49.725002,3.45,8.025001,,,,,,,,,,,,,,,,,,
SENSOR,1789661150819,40881064496246,0.15732808,0.212363,9.872487,-0.0012217294,0.0012217294,3.0543236E-4,-49.95,3.7500002,7.425,,,,,,,,,,,,,,,,,,
SENSOR,1789661150884,40881059496246,0.1591227,0.21714866,9.868897,-0.0012217294,0.0012217294,3.0543236E-4,-49.95,3.7500002,7.425,,,,,,,,,,,,,,,,,,
SENSOR,1789661150884,40881079496246,0.1591227,0.18993029,9.864411,-0.0012217294,0.0012217294,3.0543236E-4,-49.95,3.7500002,7.425,,,,,,,,,,,,,,,,,,
SENSOR,1789661150884,40881099496246,0.15732808,0.2015953,9.857831,-0.0012217294,0.0012217294,3.0543236E-4,-49.95,3.7500002,7.425,,,,,,,,,,,,,,,,,,
SENSOR,1789661150884,40881119496246,0.15583257,0.20518455,9.864112,-0.0012217294,0.0012217294,3.0543236E-4,-49.95,3.7500002,7.425,,,,,,,,,,,,,,,,,,
SENSOR,1789661150896,40881154496246,0.15583257,0.20518455,9.864112,0.0,3.0543236E-4,3.0543236E-4,-49.95,3.7500002,7.425,,,,,,,,,,,,,,,,,,
GNSS,1789661151000,,true,11.05530607,76.92707443,374.29083251953125,7.6871123,0.0,,53,0,,,,,,,,,,,,,
SENSOR,1789661150918,40881164496246,0.15583257,0.20518455,9.864112,0.0,3.0543236E-4,3.0543236E-4,-49.275,3.3750002,6.7500005,,,,,,,,,,,,,,,,,,
SENSOR,1789661150985,40881139496246,0.15702899,0.19322042,9.861121,0.0,3.0543236E-4,3.0543236E-4,-49.275,3.3750002,6.7500005,,,,,,,,,,,,,,,,,,
SENSOR,1789661150986,40881159496246,0.15224335,0.20608185,9.866505,0.0,3.0543236E-4,3.0543236E-4,-49.275,3.3750002,6.7500005,,,,,,,,,,,,,,,,,,
SENSOR,1789661150986,40881179496246,0.1591227,0.19680966,9.864112,0.0,3.0543236E-4,3.0543236E-4,-49.275,3.3750002,6.7500005,,,,,,,,,,,,,,,,,,
SENSOR,1789661150986,40881199496246,0.15972091,0.20578274,9.868001,0.0,3.0543236E-4,3.0543236E-4,-49.275,3.3750002,6.7500005,,,,,,,,,,,,,,,,,,
SENSOR,1789661150986,40881219496246,0.15732808,0.19830517,9.867104,0.0,3.0543236E-4,3.0543236E-4,-49.275,3.3750002,6.7500005,,,,,,,,,,,,,,,,,,
SENSOR,1789661150987,40881239496246,0.15343975,0.20368902,9.8632145,0.0,3.0543236E-4,3.0543236E-4,-49.275,3.3750002,6.7500005,,,,,,,,,,,,,,,,,,
SENSOR,1789661150992,40881254496246,0.15343975,0.20368902,9.8632145,0.0,3.0543236E-4,-7.635809E-4,-49.275,3.3750002,6.7500005,,,,,,,,,,,,,,,,,,
SENSOR,1789661151019,40881264496246,0.15343975,0.20368902,9.8632145,0.0,3.0543236E-4,-7.635809E-4,-49.875004,3.3750002,6.9,,,,,,,,,,,,,,,,,,
SENSOR,1789661151084,40881259496246,0.15643078,0.20548365,9.865608,0.0,3.0543236E-4,-7.635809E-4,-49.875004,3.3750002,6.9,,,,,,,,,,,,,,,,,,
SENSOR,1789661151084,40881279496246,0.15643078,0.20428723,9.866505,0.0,3.0543236E-4,-7.635809E-4,-49.875004,3.3750002,6.9,,,,,,,,,,,,,,,,,,
SENSOR,1789661151084,40881299496246,0.16151553,0.20608185,9.865009,0.0,3.0543236E-4,-7.635809E-4,-49.875004,3.3750002,6.9,,,,,,,,,,,,,,,,,,
SENSOR,1789661151084,40881319496246,0.16151553,0.2015953,9.870692,0.0,3.0543236E-4,-7.635809E-4,-49.875004,3.3750002,6.9,,,,,,,,,,,,,,,,,,
SENSOR,1789661151096,40881354496246,0.16151553,0.2015953,9.870692,0.0,3.0543236E-4,-4.5814854E-4,-49.875004,3.3750002,6.9,,,,,,,,,,,,,,,,,,
SENSOR,1789661151116,40881364496246,0.16151553,0.2015953,9.870692,0.0,3.0543236E-4,-4.5814854E-4,-50.100002,3.825,7.8,,,,,,,,,,,,,,,,,,
SENSOR,1789661151183,40881339496246,0.1576272,0.20518455,9.866804,0.0,3.0543236E-4,-4.5814854E-4,-50.100002,3.825,7.8,,,,,,,,,,,,,,,,,,
SENSOR,1789661151183,40881359496246,0.15972091,0.200698,9.8682995,0.0,3.0543236E-4,-4.5814854E-4,-50.100002,3.825,7.8,,,,,,,,,,,,,,,,,,
SENSOR,1789661151184,40881379496246,0.15672988,0.20608185,9.869795,0.0,3.0543236E-4,-4.5814854E-4,-50.100002,3.825,7.8,,,,,,,,,,,,,,,,,,
SENSOR,1789661151184,40881399496246,0.15403795,0.19830517,9.865009,0.0,3.0543236E-4,-4.5814854E-4,-50.100002,3.825,7.8,,,,,,,,,,,,,,,,,,
SENSOR,1789661151184,40881419496246,0.1591227,0.20368902,9.866804,0.0,3.0543236E-4,-4.5814854E-4,-50.100002,3.825,7.8,,,,,,,,,,,,,,,,,,
SENSOR,1789661151184,40881439496246,0.15224335,0.200698,9.862617,0.0,3.0543236E-4,-4.5814854E-4,-50.100002,3.825,7.8,,,,,,,,,,,,,,,,,,
SENSOR,1789661151192,40881454496246,0.15224335,0.200698,9.862617,0.0,3.0543236E-4,-9.162971E-4,-50.100002,3.825,7.8,,,,,,,,,,,,,,,,,,
SENSOR,1789661151218,40881464496246,0.15224335,0.200698,9.862617,0.0,3.0543236E-4,-9.162971E-4,-48.600002,3.9750001,5.8500004,,,,,,,,,,,,,,,,,,
SENSOR,1789661151284,40881459496246,0.15702899,0.20279172,9.866206,0.0,3.0543236E-4,-9.162971E-4,-48.600002,3.9750001,5.8500004,,,,,,,,,,,,,,,,,,
SENSOR,1789661151286,40881479496246,0.15613168,0.2015953,9.862916,0.0,3.0543236E-4,-9.162971E-4,-48.600002,3.9750001,5.8500004,,,,,,,,,,,,,,,,,,
SENSOR,1789661151286,40881499496246,0.15194423,0.20129621,9.868897,0.0,3.0543236E-4,-9.162971E-4,-48.600002,3.9750001,5.8500004,,,,,,,,,,,,,,,,,,
SENSOR,1789661151286,40881519496246,0.15702899,0.20847467,9.865309,0.0,3.0543236E-4,-9.162971E-4,-48.600002,3.9750001,5.8500004,,,,,,,,,,,,,,,,,,
SENSOR,1789661151296,40881554496246,0.15702899,0.20847467,9.865309,0.0,3.0543236E-4,3.0543236E-4,-48.600002,3.9750001,5.8500004,,,,,,,,,,,,,,,,,,
SENSOR,1789661151314,40881564496246,0.15702899,0.20847467,9.865309,0.0,3.0543236E-4,3.0543236E-4,-50.325,3.6750002,7.2000003,,,,,,,,,,,,,,,,,,
CELLULAR,1789661151336,,,,,,,,,,,,,,true,NR,4298047490,405,869,,75,403,634080,-109,NR_SS_RSRP,3,
SENSOR,1789661151383,40881539496246,0.1576272,0.20368902,9.865907,0.0,3.0543236E-4,3.0543236E-4,-50.325,3.6750002,7.2000003,,,,,,,,,,,,,,,,,,
SENSOR,1789661151384,40881559496246,0.15493527,0.20817557,9.865907,0.0,3.0543236E-4,3.0543236E-4,-50.325,3.6750002,7.2000003,,,,,,,,,,,,,,,,,,
SENSOR,1789661151384,40881579496246,0.15643078,0.20129621,9.867104,0.0,3.0543236E-4,3.0543236E-4,-50.325,3.6750002,7.2000003,,,,,,,,,,,,,,,,,,
SENSOR,1789661151384,40881599496246,0.15403795,0.20428723,9.868001,0.0,3.0543236E-4,3.0543236E-4,-50.325,3.6750002,7.2000003,,,,,,,,,,,,,,,,,,
SENSOR,1789661151384,40881619496246,0.15672988,0.2015953,9.865907,0.0,3.0543236E-4,3.0543236E-4,-50.325,3.6750002,7.2000003,,,,,,,,,,,,,,,,,,
SENSOR,1789661151384,40881639496246,0.1591227,0.20309082,9.864112,0.0,3.0543236E-4,3.0543236E-4,-50.325,3.6750002,7.2000003,,,,,,,,,,,,,,,,,,
SENSOR,1789661151391,40881654496246,0.1591227,0.20309082,9.864112,0.0,3.0543236E-4,-9.162971E-4,-50.325,3.6750002,7.2000003,,,,,,,,,,,,,,,,,,
SENSOR,1789661151418,40881664496246,0.1591227,0.20309082,9.864112,0.0,3.0543236E-4,-9.162971E-4,-49.050003,3.7500002,7.7250004,,,,,,,,,,,,,,,,,,
SENSOR,1789661151483,40881659496246,0.1585245,0.20219351,9.869197,0.0,3.0543236E-4,-9.162971E-4,-49.050003,3.7500002,7.7250004,,,,,,,,,,,,,,,,,,
SENSOR,1789661151483,40881679496246,0.15732808,0.20398813,9.863514,0.0,3.0543236E-4,-9.162971E-4,-49.050003,3.7500002,7.7250004,,,,,,,,,,,,,,,,,,
SENSOR,1789661151483,40881699496246,0.15643078,0.19920248,9.869197,0.0,3.0543236E-4,-9.162971E-4,-49.050003,3.7500002,7.7250004,,,,,,,,,,,,,,,,,,
SENSOR,1789661151483,40881719496246,0.15613168,0.20398813,9.867104,0.0,3.0543236E-4,-9.162971E-4,-49.050003,3.7500002,7.7250004,,,,,,,,,,,,,,,,,,
SENSOR,1789661151496,40881754496246,0.15613168,0.20398813,9.867104,0.0,3.0543236E-4,3.0543236E-4,-49.050003,3.7500002,7.7250004,,,,,,,,,,,,,,,,,,
SENSOR,1789661151514,40881764496246,0.15613168,0.20398813,9.867104,0.0,3.0543236E-4,3.0543236E-4,-49.500004,4.2000003,7.275,,,,,,,,,,,,,,,,,,
SENSOR,1789661151583,40881739496246,0.14925231,0.19980069,9.864112,0.0,3.0543236E-4,3.0543236E-4,-49.500004,4.2000003,7.275,,,,,,,,,,,,,,,,,,
SENSOR,1789661151583,40881759496246,0.14985052,0.19980069,9.864411,0.0,3.0543236E-4,3.0543236E-4,-49.500004,4.2000003,7.275,,,,,,,,,,,,,,,,,,
SENSOR,1789661151583,40881779496246,0.16002001,0.19980069,9.862318,0.0,3.0543236E-4,3.0543236E-4,-49.500004,4.2000003,7.275,,,,,,,,,,,,,,,,,,
SENSOR,1789661151584,40881799496246,0.15672988,0.19920248,9.872487,0.0,3.0543236E-4,3.0543236E-4,-49.500004,4.2000003,7.275,,,,,,,,,,,,,,,,,,
SENSOR,1789661151584,40881819496246,0.15254244,0.2009971,9.868897,0.0,3.0543236E-4,3.0543236E-4,-49.500004,4.2000003,7.275,,,,,,,,,,,,,,,,,,
SENSOR,1789661151584,40881839496246,0.16002001,0.20249261,9.865608,0.0,3.0543236E-4,3.0543236E-4,-49.500004,4.2000003,7.275,,,,,,,,,,,,,,,,,,
SENSOR,1789661151591,40881854496246,0.16002001,0.20249261,9.865608,0.0,3.0543236E-4,3.0543236E-4,-49.500004,4.2000003,7.275,,,,,,,,,,,,,,,,,,
SENSOR,1789661151618,40881864496246,0.16002001,0.20249261,9.865608,0.0,3.0543236E-4,3.0543236E-4,-50.025,3.525,7.5750003,,,,,,,,,,,,,,,,,,
SENSOR,1789661151684,40881859496246,0.15702899,0.19950159,9.864411,0.0,3.0543236E-4,3.0543236E-4,-50.025,3.525,7.5750003,,,,,,,,,,,,,,,,,,
SENSOR,1789661151685,40881879496246,0.15523437,0.20398813,9.866505,0.0,3.0543236E-4,3.0543236E-4,-50.025,3.525,7.5750003,,,,,,,,,,,,,,,,,,
SENSOR,1789661151685,40881899496246,0.15553348,0.20638095,9.867402,0.0,3.0543236E-4,3.0543236E-4,-50.025,3.525,7.5750003,,,,,,,,,,,,,,,,,,
SENSOR,1789661151685,40881919496246,0.15493527,0.20368902,9.8632145,0.0,3.0543236E-4,3.0543236E-4,-50.025,3.525,7.5750003,,,,,,,,,,,,,,,,,,
SENSOR,1789661151696,40881954496246,0.15493527,0.20368902,9.8632145,0.0,3.0543236E-4,3.0543236E-4,-50.025,3.525,7.5750003,,,,,,,,,,,,,,,,,,
SENSOR,1789661151714,40881964496246,0.15493527,0.20368902,9.8632145,0.0,3.0543236E-4,3.0543236E-4,-49.425003,3.9,7.05,,,,,,,,,,,,,,,,,,
SENSOR,1789661151782,40881939496246,0.15702899,0.20548365,9.866206,0.0,3.0543236E-4,3.0543236E-4,-49.425003,3.9,7.05,,,,,,,,,,,,,,,,,,
SENSOR,1789661151782,40881959496246,0.15314065,0.20189442,9.862916,0.0,3.0543236E-4,3.0543236E-4,-49.425003,3.9,7.05,,,,,,,,,,,,,,,,,,
SENSOR,1789661151783,40881979496246,0.148355,0.20338993,9.861719,0.0,3.0543236E-4,3.0543236E-4,-49.425003,3.9,7.05,,,,,,,,,,,,,,,,,,
SENSOR,1789661151783,40881999496246,0.15194423,0.20309082,9.869496,0.0,3.0543236E-4,3.0543236E-4,-49.425003,3.9,7.05,,,,,,,,,,,,,,,,,,
SENSOR,1789661151783,40882019496246,0.15702899,0.20398813,9.858429,0.0,3.0543236E-4,3.0543236E-4,-49.425003,3.9,7.05,,,,,,,,,,,,,,,,,,
SENSOR,1789661151783,40882039496246,0.15164514,0.2000998,9.877572,0.0,3.0543236E-4,3.0543236E-4,-49.425003,3.9,7.05,,,,,,,,,,,,,,,,,,
SENSOR,1789661151799,40882054496246,0.15164514,0.2000998,9.877572,-0.0010690133,-0.0021380265,3.0543236E-4,-49.425003,3.9,7.05,,,,,,,,,,,,,,,,,,
SENSOR,1789661151821,40882064496246,0.15164514,0.2000998,9.877572,-0.0010690133,-0.0021380265,3.0543236E-4,-49.575,3.9750001,8.400001,,,,,,,,,,,,,,,,,,
SENSOR,1789661151884,40882059496246,0.17527425,0.19501504,9.847662,-0.0010690133,-0.0021380265,3.0543236E-4,-49.575,3.9750001,8.400001,,,,,,,,,,,,,,,,,,
SENSOR,1789661151884,40882079496246,0.14327025,0.20488544,9.8937235,-0.0010690133,-0.0021380265,3.0543236E-4,-49.575,3.9750001,8.400001,,,,,,,,,,,,,,,,,,
SENSOR,1789661151884,40882099496246,0.15702899,0.20937198,9.850653,-0.0010690133,-0.0021380265,3.0543236E-4,-49.575,3.9750001,8.400001,,,,,,,,,,,,,,,,,,
SENSOR,1789661151884,40882119496246,0.1594218,0.19860429,9.869795,-0.0010690133,-0.0021380265,3.0543236E-4,-49.575,3.9750001,8.400001,,,,,,,,,,,,,,,,,,
SENSOR,1789661151897,40882154496246,0.1594218,0.19860429,9.869795,0.0,3.0543236E-4,3.0543236E-4,-49.575,3.9750001,8.400001,,,,,,,,,,,,,,,,,,
GNSS,1789661151907,,true,11.05530607,76.92707443,374.29083251953125,7.6871123,0.0,,94,10,,,,,,,,,,,,,
SENSOR,1789661151919,40882164496246,0.1594218,0.19860429,9.869795,0.0,3.0543236E-4,3.0543236E-4,-49.425003,4.2000003,7.2000003,,,,,,,,,,,,,,,,,,
GNSS,1789661152000,,true,11.05530561,76.927078,374.70416259765625,4.7055116,0.0,,94,10,,,,,,,,,,,,,
SENSOR,1789661151982,40882139496246,0.15882361,0.200698,9.865009,0.0,3.0543236E-4,3.0543236E-4,-49.425003,4.2000003,7.2000003,,,,,,,,,,,,,,,,,,
SENSOR,1789661151982,40882159496246,0.1585245,0.20368902,9.871889,0.0,3.0543236E-4,3.0543236E-4,-49.425003,4.2000003,7.2000003,,,,,,,,,,,,,,,,,,
SENSOR,1789661151982,40882179496246,0.15373886,0.19860429,9.860822,0.0,3.0543236E-4,3.0543236E-4,-49.425003,4.2000003,7.2000003,,,,,,,,,,,,,,,,,,
SENSOR,1789661151982,40882199496246,0.15613168,0.200698,9.8682995,0.0,3.0543236E-4,3.0543236E-4,-49.425003,4.2000003,7.2000003,,,,,,,,,,,,,,,,,,
SENSOR,1789661151983,40882219496246,0.16211374,0.2009971,9.864711,0.0,3.0543236E-4,3.0543236E-4,-49.425003,4.2000003,7.2000003,,,,,,,,,,,,,,,,,,
SENSOR,1789661151983,40882239496246,0.15702899,0.20638095,9.866505,0.0,3.0543236E-4,3.0543236E-4,-49.425003,4.2000003,7.2000003,,,,,,,,,,,,,,,,,,
SENSOR,1789661152000,40882254496246,0.15702899,0.20638095,9.866505,0.0,1.5271618E-4,3.0543236E-4,-49.425003,4.2000003,7.2000003,,,,,,,,,,,,,,,,,,
SENSOR,1789661152017,40882264496246,0.15702899,0.20638095,9.866505,0.0,1.5271618E-4,3.0543236E-4,-49.350002,3.9,6.675,,,,,,,,,,,,,,,,,,
SENSOR,1789661152084,40882259496246,0.15284155,0.19980069,9.863813,0.0,1.5271618E-4,3.0543236E-4,-49.350002,3.9,6.675,,,,,,,,,,,,,,,,,,
SENSOR,1789661152084,40882279496246,0.1594218,0.19920248,9.864711,0.0,1.5271618E-4,3.0543236E-4,-49.350002,3.9,6.675,,,,,,,,,,,,,,,,,,
SENSOR,1789661152085,40882299496246,0.15493527,0.19680966,9.865907,0.0,1.5271618E-4,3.0543236E-4,-49.350002,3.9,6.675,,,,,,,,,,,,,,,,,,
SENSOR,1789661152085,40882319496246,0.15104693,0.20638095,9.860224,0.0,1.5271618E-4,3.0543236E-4,-49.350002,3.9,6.675,,,,,,,,,,,,,,,,,,
SENSOR,1789661152094,40882354496246,0.15104693,0.20638095,9.860224,0.0,3.0543236E-4,-1.5271618E-4,-49.350002,3.9,6.675,,,,,,,,,,,,,,,,,,
SENSOR,1789661152112,40882364496246,0.15104693,0.20638095,9.860224,0.0,3.0543236E-4,-1.5271618E-4,-49.95,4.5,8.175,,,,,,,,,,,,,,,,,,
SENSOR,1789661152182,40882339496246,0.15583257,0.19651055,9.855438,0.0,3.0543236E-4,-1.5271618E-4,-49.95,4.5,8.175,,,,,,,,,,,,,,,,,,
SENSOR,1789661152182,40882359496246,0.1591227,0.20488544,9.876375,0.0,3.0543236E-4,-1.5271618E-4,-49.95,4.5,8.175,,,,,,,,,,,,,,,,,,
SENSOR,1789661152183,40882379496246,0.1594218,0.20219351,9.867104,0.0,3.0543236E-4,-1.5271618E-4,-49.95,4.5,8.175,,,,,,,,,,,,,,,,,,
SENSOR,1789661152183,40882399496246,0.15314065,0.20578274,9.862318,0.0,3.0543236E-4,-1.5271618E-4,-49.95,4.5,8.175,,,,,,,,,,,,,,,,,,
SENSOR,1789661152183,40882419496246,0.15523437,0.19591236,9.871889,0.0,3.0543236E-4,-1.5271618E-4,-49.95,4.5,8.175,,,,,,,,,,,,,,,,,,
SENSOR,1789661152183,40882439496246,0.15403795,0.20428723,9.873384,0.0,3.0543236E-4,-1.5271618E-4,-49.95,4.5,8.175,,,,,,,,,,,,,,,,,,
SENSOR,1789661152200,40882454496246,0.15403795,0.20428723,9.873384,0.0,3.0543236E-4,3.0543236E-4,-49.95,4.5,8.175,,,,,,,,,,,,,,,,,,
SENSOR,1789661152217,40882464496246,0.15403795,0.20428723,9.873384,0.0,3.0543236E-4,3.0543236E-4,-50.325,4.05,8.475,,,,,,,,,,,,,,,,,,
SENSOR,1789661152284,40882459496246,0.15732808,0.20727827,9.855738,0.0,3.0543236E-4,3.0543236E-4,-50.325,4.05,8.475,,,,,,,,,,,,,,,,,,
SENSOR,1789661152284,40882479496246,0.15403795,0.20189442,9.868599,0.0,3.0543236E-4,3.0543236E-4,-50.325,4.05,8.475,,,,,,,,,,,,,,,,,,
SENSOR,1789661152285,40882499496246,0.15044872,0.20309082,9.869795,0.0,3.0543236E-4,3.0543236E-4,-50.325,4.05,8.475,,,,,,,,,,,,,,,,,,
SENSOR,1789661152285,40882519496246,0.15792629,0.20219351,9.866505,0.0,3.0543236E-4,3.0543236E-4,-50.325,4.05,8.475,,,,,,,,,,,,,,,,,,
SENSOR,1789661152294,40882554496246,0.15792629,0.20219351,9.866505,0.0,3.0543236E-4,3.0543236E-4,-50.325,4.05,8.475,,,,,,,,,,,,,,,,,,
SENSOR,1789661152313,40882564496246,0.15792629,0.20219351,9.866505,0.0,3.0543236E-4,3.0543236E-4,-50.025,3.7500002,8.325001,,,,,,,,,,,,,,,,,,
CELLULAR,1789661152356,,,,,,,,,,,,,,true,NR,4298047490,405,869,,75,403,634080,-109,NR_SS_RSRP,3,
SENSOR,1789661152383,40882539496246,0.15523437,0.19950159,9.873085,0.0,3.0543236E-4,3.0543236E-4,-50.025,3.7500002,8.325001,,,,,,,,,,,,,,,,,,
SENSOR,1789661152383,40882559496246,0.15553348,0.20309082,9.864411,0.0,3.0543236E-4,3.0543236E-4,-50.025,3.7500002,8.325001,,,,,,,,,,,,,,,,,,
SENSOR,1789661152383,40882579496246,0.15523437,0.20309082,9.870992,0.0,3.0543236E-4,3.0543236E-4,-50.025,3.7500002,8.325001,,,,,,,,,,,,,,,,,,
SENSOR,1789661152383,40882599496246,0.15493527,0.19980069,9.862318,0.0,3.0543236E-4,3.0543236E-4,-50.025,3.7500002,8.325001,,,,,,,,,,,,,,,,,,
SENSOR,1789661152383,40882619496246,0.15194423,0.20368902,9.865009,0.0,3.0543236E-4,3.0543236E-4,-50.025,3.7500002,8.325001,,,,,,,,,,,,,,,,,,
SENSOR,1789661152383,40882639496246,0.15373886,0.2009971,9.867104,0.0,3.0543236E-4,3.0543236E-4,-50.025,3.7500002,8.325001,,,,,,,,,,,,,,,,,,
SENSOR,1789661152399,40882654496246,0.15373886,0.2009971,9.867104,0.0010690133,-7.635809E-4,-7.635809E-4,-50.025,3.7500002,8.325001,,,,,,,,,,,,,,,,,,
SENSOR,1789661152417,40882664496246,0.15373886,0.2009971,9.867104,0.0010690133,-7.635809E-4,-7.635809E-4,-50.100002,3.6750002,7.65,,,,,,,,,,,,,,,,,,
SENSOR,1789661152483,40882659496246,0.15523437,0.19830517,9.847662,0.0010690133,-7.635809E-4,-7.635809E-4,-50.100002,3.6750002,7.65,,,,,,,,,,,,,,,,,,
SENSOR,1789661152483,40882679496246,0.15104693,0.20608185,9.870992,0.0010690133,-7.635809E-4,-7.635809E-4,-50.100002,3.6750002,7.65,,,,,,,,,,,,,,,,,,
SENSOR,1789661152484,40882699496246,0.15882361,0.19501504,9.873384,0.0010690133,-7.635809E-4,-7.635809E-4,-50.100002,3.6750002,7.65,,,,,,,,,,,,,,,,,,
SENSOR,1789661152484,40882719496246,0.15343975,0.21565314,9.872188,0.0010690133,-7.635809E-4,-7.635809E-4,-50.100002,3.6750002,7.65,,,,,,,,,,,,,,,,,,
SENSOR,1789661152495,40882754496246,0.15343975,0.21565314,9.872188,0.0,3.0543236E-4,3.0543236E-4,-50.100002,3.6750002,7.65,,,,,,,,,,,,,,,,,,
SENSOR,1789661152511,40882764496246,0.15343975,0.21565314,9.872188,0.0,3.0543236E-4,3.0543236E-4,-49.350002,3.6000001,7.275,,,,,,,,,,,,,,,,,,
SENSOR,1789661152584,40882739496246,0.15523437,0.19920248,9.862318,0.0,3.0543236E-4,3.0543236E-4,-49.350002,3.6000001,7.275,,,,,,,,,,,,,,,,,,
SENSOR,1789661152584,40882759496246,0.15523437,0.2015953,9.859925,0.0,3.0543236E-4,3.0543236E-4,-49.350002,3.6000001,7.275,,,,,,,,,,,,,,,,,,
SENSOR,1789661152584,40882779496246,0.15403795,0.2000998,9.866206,0.0,3.0543236E-4,3.0543236E-4,-49.350002,3.6000001,7.275,,,,,,,,,,,,,,,,,,
SENSOR,1789661152584,40882799496246,0.15732808,0.19980069,9.862916,0.0,3.0543236E-4,3.0543236E-4,-49.350002,3.6000001,7.275,,,,,,,,,,,,,,,,,,
SENSOR,1789661152584,40882819496246,0.15433706,0.20518455,9.867702,0.0,3.0543236E-4,3.0543236E-4,-49.350002,3.6000001,7.275,,,,,,,,,,,,,,,,,,
SENSOR,1789661152599,40882854496246,0.15433706,0.20518455,9.867702,0.0,3.0543236E-4,-7.635809E-4,-49.350002,3.6000001,7.275,,,,,,,,,,,,,,,,,,
SENSOR,1789661152615,40882864496246,0.15433706,0.20518455,9.867702,0.0,3.0543236E-4,-7.635809E-4,-49.800003,3.9750001,7.5000005,,,,,,,,,,,,,,,,,,
SENSOR,1789661152683,40882839496246,0.1585245,0.19710876,9.867402,0.0,3.0543236E-4,-7.635809E-4,-49.800003,3.9750001,7.5000005,,,,,,,,,,,,,,,,,,
SENSOR,1789661152684,40882859496246,0.15643078,0.20608185,9.876974,0.0,3.0543236E-4,-7.635809E-4,-49.800003,3.9750001,7.5000005,,,,,,,,,,,,,,,,,,
SENSOR,1789661152684,40882879496246,0.14925231,0.20398813,9.85484,0.0,3.0543236E-4,-7.635809E-4,-49.800003,3.9750001,7.5000005,,,,,,,,,,,,,,,,,,
SENSOR,1789661152684,40882899496246,0.15463616,0.20488544,9.868001,0.0,3.0543236E-4,-7.635809E-4,-49.800003,3.9750001,7.5000005,,,,,,,,,,,,,,,,,,
SENSOR,1789661152684,40882919496246,0.15702899,0.20129621,9.860822,0.0,3.0543236E-4,-7.635809E-4,-49.800003,3.9750001,7.5000005,,,,,,,,,,,,,,,,,,
SENSOR,1789661152695,40882954496246,0.15702899,0.20129621,9.860822,0.0,3.0543236E-4,-1.5271618E-4,-49.800003,3.9750001,7.5000005,,,,,,,,,,,,,,,,,,
SENSOR,1789661152720,40882964496246,0.15702899,0.20129621,9.860822,0.0,3.0543236E-4,-1.5271618E-4,-49.725002,4.2000003,7.8750005,,,,,,,,,,,,,,,,,,
SENSOR,1789661152784,40882939496246,0.1585245,0.20368902,9.862617,0.0,3.0543236E-4,-1.5271618E-4,-49.725002,4.2000003,7.8750005,,,,,,,,,,,,,,,,,,
SENSOR,1789661152784,40882959496246,0.15972091,0.19471595,9.859925,0.0,3.0543236E-4,-1.5271618E-4,-49.725002,4.2000003,7.8750005,,,,,,,,,,,,,,,,,,
SENSOR,1789661152785,40882979496246,0.15373886,0.20997019,9.865309,0.0,3.0543236E-4,-1.5271618E-4,-49.725002,4.2000003,7.8750005,,,,,,,,,,,,,,,,,,
SENSOR,1789661152785,40882999496246,0.16002001,0.2015953,9.8632145,0.0,3.0543236E-4,-1.5271618E-4,-49.725002,4.2000003,7.8750005,,,,,,,,,,,,,,,,,,
SENSOR,1789661152785,40883019496246,0.15553348,0.2015953,9.869496,0.0,3.0543236E-4,-1.5271618E-4,-49.725002,4.2000003,7.8750005,,,,,,,,,,,,,,,,,,
SENSOR,1789661152798,40883054496246,0.15553348,0.2015953,9.869496,0.0,3.0543236E-4,3.0543236E-4,-49.725002,4.2000003,7.8750005,,,,,,,,,,,,,,,,,,
SENSOR,1789661152815,40883064496246,0.15553348,0.2015953,9.869496,0.0,3.0543236E-4,3.0543236E-4,-49.725002,3.7500002,6.8250003,,,,,,,,,,,,,,,,,,
SENSOR,1789661152884,40883039496246,0.15702899,0.20189442,9.873384,0.0,3.0543236E-4,3.0543236E-4,-49.725002,3.7500002,6.8250003,,,,,,,,,,,,,,,,,,
SENSOR,1789661152884,40883059496246,0.15643078,0.19920248,9.862019,0.0,3.0543236E-4,3.0543236E-4,-49.725002,3.7500002,6.8250003,,,,,,,,,,,,,,,,,,
SENSOR,1789661152885,40883079496246,0.1576272,0.2015953,9.867104,0.0,3.0543236E-4,3.0543236E-4,-49.725002,3.7500002,6.8250003,,,,,,,,,,,,,,,,,,
SENSOR,1789661152885,40883099496246,0.15613168,0.19920248,9.864411,0.0,3.0543236E-4,3.0543236E-4,-49.725002,3.7500002,6.8250003,,,,,,,,,,,,,,,,,,
SENSOR,1789661152885,40883119496246,0.15373886,0.21266212,9.8727865,0.0,3.0543236E-4,3.0543236E-4,-49.725002,3.7500002,6.8250003,,,,,,,,,,,,,,,,,,
SENSOR,1789661152892,40883154496246,0.15373886,0.21266212,9.8727865,0.0,-9.162971E-4,3.0543236E-4,-49.725002,3.7500002,6.8250003,,,,,,,,,,,,,,,,,,
GNSS,1789661152907,,true,11.05530561,76.927078,374.70416259765625,4.7055116,0.0,,94,25,,,,,,,,,,,,,
GNSS,1789661153000,,true,11.05530287,76.92708413,375.2557373046875,3.7900925,0.0,,94,25,,,,,,,,,,,,,
SENSOR,1789661152921,40883164496246,0.15373886,0.21266212,9.8727865,0.0,-9.162971E-4,3.0543236E-4,-50.025,3.7500002,7.425,,,,,,,,,,,,,,,,,,
SENSOR,1789661152984,40883139496246,0.15583257,0.20398813,9.864411,0.0,-9.162971E-4,3.0543236E-4,-50.025,3.7500002,7.425,,,,,,,,,,,,,,,,,,
SENSOR,1789661152984,40883159496246,0.1576272,0.20488544,9.869795,0.0,-9.162971E-4,3.0543236E-4,-50.025,3.7500002,7.425,,,,,,,,,,,,,,,,,,
SENSOR,1789661152984,40883179496246,0.15493527,0.20189442,9.868599,0.0,-9.162971E-4,3.0543236E-4,-50.025,3.7500002,7.425,,,,,,,,,,,,,,,,,,
SENSOR,1789661152984,40883199496246,0.15702899,0.20189442,9.858728,0.0,-9.162971E-4,3.0543236E-4,-50.025,3.7500002,7.425,,,,,,,,,,,,,,,,,,
SENSOR,1789661152984,40883219496246,0.15613168,0.20219351,9.87159,0.0,-9.162971E-4,3.0543236E-4,-50.025,3.7500002,7.425,,,,,,,,,,,,,,,,,,
SENSOR,1789661152998,40883254496246,0.15613168,0.20219351,9.87159,0.0,3.0543236E-4,3.0543236E-4,-50.025,3.7500002,7.425,,,,,,,,,,,,,,,,,,
SENSOR,1789661153016,40883264496246,0.15613168,0.20219351,9.87159,0.0,3.0543236E-4,3.0543236E-4,-50.175003,3.825,7.5750003,,,,,,,,,,,,,,,,,,
SENSOR,1789661153083,40883239496246,0.1582254,0.20249261,9.857532,0.0,3.0543236E-4,3.0543236E-4,-50.175003,3.825,7.5750003,,,,,,,,,,,,,,,,,,
SENSOR,1789661153083,40883259496246,0.15613168,0.20488544,9.863813,0.0,3.0543236E-4,3.0543236E-4,-50.175003,3.825,7.5750003,,,,,,,,,,,,,,,,,,
SENSOR,1789661153083,40883279496246,0.15403795,0.20249261,9.870094,0.0,3.0543236E-4,3.0543236E-4,-50.175003,3.825,7.5750003,,,,,,,,,,,,,,,,,,
SENSOR,1789661153084,40883299496246,0.15702899,0.20189442,9.8727865,0.0,3.0543236E-4,3.0543236E-4,-50.175003,3.825,7.5750003,,,,,,,,,,,,,,,,,,
SENSOR,1789661153084,40883319496246,0.1585245,0.2015953,9.867702,0.0,3.0543236E-4,3.0543236E-4,-50.175003,3.825,7.5750003,,,,,,,,,,,,,,,,,,
SENSOR,1789661153093,40883354496246,0.1585245,0.2015953,9.867702,0.0,-6.108647E-4,3.0543236E-4,-50.175003,3.825,7.5750003,,,,,,,,,,,,,,,,,,
SENSOR,1789661153119,40883364496246,0.1585245,0.2015953,9.867702,0.0,-6.108647E-4,3.0543236E-4,-49.800003,4.05,8.325001,,,,,,,,,,,,,,,,,,
SENSOR,1789661153184,40883339496246,0.15643078,0.20219351,9.864411,0.0,-6.108647E-4,3.0543236E-4,-49.800003,4.05,8.325001,,,,,,,,,,,,,,,,,,
SENSOR,1789661153184,40883359496246,0.15403795,0.20548365,9.865907,0.0,-6.108647E-4,3.0543236E-4,-49.800003,4.05,8.325001,,,,,,,,,,,,,,,,,,
SENSOR,1789661153184,40883379496246,0.16002001,0.19830517,9.859626,0.0,-6.108647E-4,3.0543236E-4,-49.800003,4.05,8.325001,,,,,,,,,,,,,,,,,,
SENSOR,1789661153184,40883399496246,0.15702899,0.20428723,9.8682995,0.0,-6.108647E-4,3.0543236E-4,-49.800003,4.05,8.325001,,,,,,,,,,,,,,,,,,
SENSOR,1789661153184,40883419496246,0.16151553,0.19680966,9.866206,0.0,-6.108647E-4,3.0543236E-4,-49.800003,4.05,8.325001,,,,,,,,,,,,,,,,,,
SENSOR,1789661153197,40883454496246,0.16151553,0.19680966,9.866206,-7.635809E-4,-6.108647E-4,3.0543236E-4,-49.800003,4.05,8.325001,,,,,,,,,,,,,,,,,,
SENSOR,1789661153215,40883464496246,0.16151553,0.19680966,9.866206,-7.635809E-4,-6.108647E-4,3.0543236E-4,-50.100002,3.7500002,7.1250005,,,,,,,,,,,,,,,,,,
SENSOR,1789661153283,40883439496246,0.15613168,0.20697916,9.859028,-7.635809E-4,-6.108647E-4,3.0543236E-4,-50.100002,3.7500002,7.1250005,,,,,,,,,,,,,,,,,,
SENSOR,1789661153284,40883459496246,0.16181463,0.19770697,9.875478,-7.635809E-4,-6.108647E-4,3.0543236E-4,-50.100002,3.7500002,7.1250005,,,,,,,,,,,,,,,,,,
SENSOR,1789661153284,40883479496246,0.15672988,0.20578274,9.869197,-7.635809E-4,-6.108647E-4,3.0543236E-4,-50.100002,3.7500002,7.1250005,,,,,,,,,,,,,,,,,,
SENSOR,1789661153284,40883499496246,0.16181463,0.20189442,9.864411,-7.635809E-4,-6.108647E-4,3.0543236E-4,-50.100002,3.7500002,7.1250005,,,,,,,,,,,,,,,,,,
SENSOR,1789661153284,40883519496246,0.15523437,0.20578274,9.863514,-7.635809E-4,-6.108647E-4,3.0543236E-4,-50.100002,3.7500002,7.1250005,,,,,,,,,,,,,,,,,,
SENSOR,1789661153293,40883554496246,0.15523437,0.20578274,9.863514,0.0,-9.162971E-4,3.0543236E-4,-50.100002,3.7500002,7.1250005,,,,,,,,,,,,,,,,,,
SENSOR,1789661153319,40883564496246,0.15523437,0.20578274,9.863514,0.0,-9.162971E-4,3.0543236E-4,-50.025,4.125,7.8750005,,,,,,,,,,,,,,,,,,
SENSOR,1789661153383,40883539496246,0.15433706,0.20129621,9.8682995,0.0,-9.162971E-4,3.0543236E-4,-50.025,4.125,7.8750005,,,,,,,,,,,,,,,,,,
SENSOR,1789661153383,40883559496246,0.15134603,0.20668006,9.859028,0.0,-9.162971E-4,3.0543236E-4,-50.025,4.125,7.8750005,,,,,,,,,,,,,,,,,,
SENSOR,1789661153383,40883579496246,0.15583257,0.20279172,9.871291,0.0,-9.162971E-4,3.0543236E-4,-50.025,4.125,7.8750005,,,,,,,,,,,,,,,,,,
SENSOR,1789661153383,40883599496246,0.1594218,0.20428723,9.866505,0.0,-9.162971E-4,3.0543236E-4,-50.025,4.125,7.8750005,,,,,,,,,,,,,,,,,,
SENSOR,1789661153383,40883619496246,0.15702899,0.20398813,9.865309,0.0,-9.162971E-4,3.0543236E-4,-50.025,4.125,7.8750005,,,,,,,,,,,,,,,,,,
CELLULAR,1789661153383,,,,,,,,,,,,,,true,NR,4298047490,405,869,,75,403,634080,-109,NR_SS_RSRP,3,
SENSOR,1789661153398,40883654496246,0.15702899,0.20398813,9.865309,0.0,3.0543236E-4,3.0543236E-4,-50.025,4.125,7.8750005,,,,,,,,,,,,,,,,,,
SENSOR,1789661153414,40883664496246,0.15702899,0.20398813,9.865309,0.0,3.0543236E-4,3.0543236E-4,-49.350002,3.6750002,7.2000003,,,,,,,,,,,,,,,,,,
SENSOR,1789661153484,40883639496246,0.15523437,0.20189442,9.868001,0.0,3.0543236E-4,3.0543236E-4,-49.350002,3.6750002,7.2000003,,,,,,,,,,,,,,,,,,
SENSOR,1789661153484,40883659496246,0.15583257,0.20309082,9.861719,0.0,3.0543236E-4,3.0543236E-4,-49.350002,3.6750002,7.2000003,,,,,,,,,,,,,,,,,,
SENSOR,1789661153484,40883679496246,0.15792629,0.2000998,9.864711,0.0,3.0543236E-4,3.0543236E-4,-49.350002,3.6750002,7.2000003,,,,,,,,,,,,,,,,,,
SENSOR,1789661153484,40883699496246,0.16091733,0.20219351,9.868897,0.0,3.0543236E-4,3.0543236E-4,-49.350002,3.6750002,7.2000003,,,,,,,,,,,,,,,,,,
SENSOR,1789661153485,40883719496246,0.1594218,0.2009971,9.871889,0.0,3.0543236E-4,3.0543236E-4,-49.350002,3.6750002,7.2000003,,,,,,,,,,,,,,,,,,
SENSOR,1789661153485,40883739496246,0.15613168,0.20937198,9.860224,0.0,3.0543236E-4,3.0543236E-4,-49.350002,3.6750002,7.2000003,,,,,,,,,,,,,,,,,,
SENSOR,1789661153493,40883754496246,0.15613168,0.20937198,9.860224,-9.162971E-4,3.0543236E-4,3.0543236E-4,-49.350002,3.6750002,7.2000003,,,,,,,,,,,,,,,,,,
SENSOR,1789661153519,40883764496246,0.15613168,0.20937198,9.860224,-9.162971E-4,3.0543236E-4,3.0543236E-4,-49.95,3.7500002,7.65,,,,,,,,,,,,,,,,,,
SENSOR,1789661153584,40883759496246,0.16121642,0.20578274,9.865907,-9.162971E-4,3.0543236E-4,3.0543236E-4,-49.95,3.7500002,7.65,,,,,,,,,,,,,,,,,,
SENSOR,1789661153584,40883779496246,0.16031912,0.19651055,9.865309,-9.162971E-4,3.0543236E-4,3.0543236E-4,-49.95,3.7500002,7.65,,,,,,,,,,,,,,,,,,
SENSOR,1789661153584,40883799496246,0.1591227,0.20638095,9.87159,-9.162971E-4,3.0543236E-4,3.0543236E-4,-49.95,3.7500002,7.65,,,,,,,,,,,,,,,,,,
SENSOR,1789661153585,40883819496246,0.15343975,0.19471595,9.859028,-9.162971E-4,3.0543236E-4,3.0543236E-4,-49.95,3.7500002,7.65,,,,,,,,,,,,,,,,,,
SENSOR,1789661153588,40883839496246,0.15463616,0.21385853,9.875478,-9.162971E-4,3.0543236E-4,3.0543236E-4,-49.95,3.7500002,7.65,,,,,,,,,,,,,,,,,,
SENSOR,1789661153596,40883854496246,0.15463616,0.21385853,9.875478,0.0,-9.162971E-4,3.0543236E-4,-49.95,3.7500002,7.65,,,,,,,,,,,,,,,,,,
SENSOR,1789661153614,40883864496246,0.15463616,0.21385853,9.875478,0.0,-9.162971E-4,3.0543236E-4,-49.575,3.6000001,7.3500004,,,,,,,,,,,,,,,,,,
SENSOR,1789661153683,40883859496246,0.16091733,0.19950159,9.865309,0.0,-9.162971E-4,3.0543236E-4,-49.575,3.6000001,7.3500004,,,,,,,,,,,,,,,,,,
SENSOR,1789661153684,40883879496246,0.15882361,0.2111666,9.877572,0.0,-9.162971E-4,3.0543236E-4,-49.575,3.6000001,7.3500004,,,,,,,,,,,,,,,,,,
SENSOR,1789661153684,40883899496246,0.15343975,0.20129621,9.8473625,0.0,-9.162971E-4,3.0543236E-4,-49.575,3.6000001,7.3500004,,,,,,,,,,,,,,,,,,
SENSOR,1789661153684,40883919496246,0.1582254,0.2105684,9.869197,0.0,-9.162971E-4,3.0543236E-4,-49.575,3.6000001,7.3500004,,,,,,,,,,,,,,,,,,
SENSOR,1789661153684,40883939496246,0.1582254,0.20279172,9.855738,0.0,-9.162971E-4,3.0543236E-4,-49.575,3.6000001,7.3500004,,,,,,,,,,,,,,,,,,
SENSOR,1789661153692,40883954496246,0.1582254,0.20279172,9.855738,0.0,-7.635809E-4,-7.635809E-4,-49.575,3.6000001,7.3500004,,,,,,,,,,,,,,,,,,
SENSOR,1789661153718,40883964496246,0.1582254,0.20279172,9.855738,0.0,-7.635809E-4,-7.635809E-4,-50.025,3.7500002,7.8,,,,,,,,,,,,,,,,,,
SENSOR,1789661153784,40883959496246,0.15613168,0.20309082,9.865309,0.0,-7.635809E-4,-7.635809E-4,-50.025,3.7500002,7.8,,,,,,,,,,,,,,,,,,
SENSOR,1789661153784,40883979496246,0.15284155,0.20967108,9.862318,0.0,-7.635809E-4,-7.635809E-4,-50.025,3.7500002,7.8,,,,,,,,,,,,,,,,,,
SENSOR,1789661153784,40883999496246,0.1582254,0.19531415,9.884451,0.0,-7.635809E-4,-7.635809E-4,-50.025,3.7500002,7.8,,,,,,,,,,,,,,,,,,
SENSOR,1789661153784,40884019496246,0.15403795,0.21565314,9.854541,0.0,-7.635809E-4,-7.635809E-4,-50.025,3.7500002,7.8,,,,,,,,,,,,,,,,,,
SENSOR,1789661153795,40884054496246,0.15403795,0.21565314,9.854541,-6.108647E-4,-9.162971E-4,3.0543236E-4,-50.025,3.7500002,7.8,,,,,,,,,,,,,,,,,,
SENSOR,1789661153815,40884064496246,0.15403795,0.21565314,9.854541,-6.108647E-4,-9.162971E-4,3.0543236E-4,-50.100002,4.05,7.9500003,,,,,,,,,,,,,,,,,,
SENSOR,1789661153883,40884039496246,0.1591227,0.19441684,9.8682995,-6.108647E-4,-9.162971E-4,3.0543236E-4,-50.100002,4.05,7.9500003,,,,,,,,,,,,,,,,,,
SENSOR,1789661153883,40884059496246,0.15732808,0.19800608,9.864112,-6.108647E-4,-9.162971E-4,3.0543236E-4,-50.100002,4.05,7.9500003,,,,,,,,,,,,,,,,,,
SENSOR,1789661153883,40884079496246,0.16181463,0.20039889,9.879067,-6.108647E-4,-9.162971E-4,3.0543236E-4,-50.100002,4.05,7.9500003,,,,,,,,,,,,,,,,,,
SENSOR,1789661153884,40884099496246,0.15702899,0.2114657,9.843175,-6.108647E-4,-9.162971E-4,3.0543236E-4,-50.100002,4.05,7.9500003,,,,,,,,,,,,,,,,,,
SENSOR,1789661153884,40884119496246,0.15702899,0.20578274,9.876375,-6.108647E-4,-9.162971E-4,3.0543236E-4,-50.100002,4.05,7.9500003,,,,,,,,,,,,,,,,,,
SENSOR,1789661153884,40884139496246,0.15403795,0.20967108,9.867702,-6.108647E-4,-9.162971E-4,3.0543236E-4,-50.100002,4.05,7.9500003,,,,,,,,,,,,,,,,,,
SENSOR,1789661153893,40884154496246,0.15403795,0.20967108,9.867702,-0.0012217294,0.0013744456,3.0543236E-4,-50.100002,4.05,7.9500003,,,,,,,,,,,,,,,,,,
GNSS,1789661153911,,true,11.05530287,76.92708413,375.2557373046875,3.7900925,0.0,,94,31,,,,,,,,,,,,,
SENSOR,1789661153926,40884164496246,0.15403795,0.20967108,9.867702,-0.0012217294,0.0013744456,3.0543236E-4,-49.875004,3.45,7.5750003,,,,,,,,,,,,,,,,,,
GNSS,1789661154000,,true,11.05533129,76.92708192,357.947021484375,9.43574,0.0,,94,31,,,,,,,,,,,,,
SENSOR,1789661153984,40884159496246,0.1585245,0.19262223,9.857233,-0.0012217294,0.0013744456,3.0543236E-4,-49.875004,3.45,7.5750003,,,,,,,,,,,,,,,,,,
SENSOR,1789661153984,40884179496246,0.1594218,0.20847467,9.849157,-0.0012217294,0.0013744456,3.0543236E-4,-49.875004,3.45,7.5750003,,,,,,,,,,,,,,,,,,
SENSOR,1789661153984,40884199496246,0.15672988,0.21744776,9.890134,-0.0012217294,0.0013744456,3.0543236E-4,-49.875004,3.45,7.5750003,,,,,,,,,,,,,,,,,,
SENSOR,1789661153984,40884219496246,0.15493527,0.1911267,9.859626,-0.0012217294,0.0013744456,3.0543236E-4,-49.875004,3.45,7.5750003,,,,,,,,,,,,,,,,,,
SENSOR,1789661153995,40884254496246,0.15493527,0.1911267,9.859626,-6.108647E-4,-3.0543236E-4,3.0543236E-4,-49.875004,3.45,7.5750003,,,,,,,,,,,,,,,,,,
SENSOR,1789661154013,40884264496246,0.15493527,0.1911267,9.859626,-6.108647E-4,-3.0543236E-4,3.0543236E-4,-50.025,3.9,7.1250005,,,,,,,,,,,,,,,,,,
SENSOR,1789661154083,40884239496246,0.15613168,0.20877378,9.865608,-6.108647E-4,-3.0543236E-4,3.0543236E-4,-50.025,3.9,7.1250005,,,,,,,,,,,,,,,,,,
SENSOR,1789661154083,40884259496246,0.15702899,0.20309082,9.865608,-6.108647E-4,-3.0543236E-4,3.0543236E-4,-50.025,3.9,7.1250005,,,,,,,,,,,,,,,,,,
SENSOR,1789661154084,40884279496246,0.16031912,0.20189442,9.862318,-6.108647E-4,-3.0543236E-4,3.0543236E-4,-50.025,3.9,7.1250005,,,,,,,,,,,,,,,,,,
SENSOR,1789661154084,40884299496246,0.15672988,0.20668006,9.867402,-6.108647E-4,-3.0543236E-4,3.0543236E-4,-50.025,3.9,7.1250005,,,,,,,,,,,,,,,,,,
SENSOR,1789661154085,40884319496246,0.16061822,0.20338993,9.872188,-6.108647E-4,-3.0543236E-4,3.0543236E-4,-50.025,3.9,7.1250005,,,,,,,,,,,,,,,,,,
SENSOR,1789661154085,40884339496246,0.1591227,0.19680966,9.860523,-6.108647E-4,-3.0543236E-4,3.0543236E-4,-50.025,3.9,7.1250005,,,,,,,,,,,,,,,,,,
SENSOR,1789661154092,40884354496246,0.1591227,0.19680966,9.860523,0.0,3.0543236E-4,3.0543236E-4,-50.025,3.9,7.1250005,,,,,,,,,,,,,,,,,,
SENSOR,1789661154118,40884364496246,0.1591227,0.19680966,9.860523,0.0,3.0543236E-4,3.0543236E-4,-49.500004,3.9750001,6.525,,,,,,,,,,,,,,,,,,
SENSOR,1789661154184,40884359496246,0.1585245,0.20907287,9.865009,0.0,3.0543236E-4,3.0543236E-4,-49.500004,3.9750001,6.525,,,,,,,,,,,,,,,,,,
SENSOR,1789661154185,40884379496246,0.15643078,0.19710876,9.8682995,0.0,3.0543236E-4,3.0543236E-4,-49.500004,3.9750001,6.525,,,,,,,,,,,,,,,,,,
SENSOR,1789661154185,40884399496246,0.15613168,0.2015953,9.866206,0.0,3.0543236E-4,3.0543236E-4,-49.500004,3.9750001,6.525,,,,,,,,,,,,,,,,,,
SENSOR,1789661154185,40884419496246,0.15343975,0.2117648,9.868599,0.0,3.0543236E-4,3.0543236E-4,-49.500004,3.9750001,6.525,,,,,,,,,,,,,,,,,,
SENSOR,1789661154196,40884454496246,0.15343975,0.2117648,9.868599,0.0,3.0543236E-4,3.0543236E-4,-49.500004,3.9750001,6.525,,,,,,,,,,,,,,,,,,
SENSOR,1789661154213,40884464496246,0.15343975,0.2117648,9.868599,0.0,3.0543236E-4,3.0543236E-4,-49.95,3.6000001,8.1,,,,,,,,,,,,,,,,,,
SENSOR,1789661154282,40884439496246,0.16360925,0.19950159,9.868001,0.0,3.0543236E-4,3.0543236E-4,-49.95,3.6000001,8.1,,,,,,,,,,,,,,,,,,
SENSOR,1789661154282,40884459496246,0.15254244,0.21804596,9.879067,0.0,3.0543236E-4,3.0543236E-4,-49.95,3.6000001,8.1,,,,,,,,,,,,,,,,,,
SENSOR,1789661154283,40884479496246,0.1576272,0.20129621,9.868599,0.0,3.0543236E-4,3.0543236E-4,-49.95,3.6000001,8.1,,,,,,,,,,,,,,,,,,
SENSOR,1789661154283,40884499496246,0.15014961,0.2015953,9.849755,0.0,3.0543236E-4,3.0543236E-4,-49.95,3.6000001,8.1,,,,,,,,,,,,,,,,,,
SENSOR,1789661154283,40884519496246,0.16151553,0.19651055,9.869496,0.0,3.0543236E-4,3.0543236E-4,-49.95,3.6000001,8.1,,,,,,,,,,,,,,,,,,
SENSOR,1789661154283,40884539496246,0.1585245,0.19950159,9.861421,0.0,3.0543236E-4,3.0543236E-4,-49.95,3.6000001,8.1,,,,,,,,,,,,,,,,,,
SENSOR,1789661154300,40884554496246,0.1585245,0.19950159,9.861421,0.0,3.0543236E-4,-9.162971E-4,-49.95,3.6000001,8.1,,,,,,,,,,,,,,,,,,
SENSOR,1789661154317,40884564496246,0.1585245,0.19950159,9.861421,0.0,3.0543236E-4,-9.162971E-4,-49.725002,3.6750002,8.325001,,,,,,,,,,,,,,,,,,
SENSOR,1789661154385,40884559496246,0.16061822,0.20428723,9.868897,0.0,3.0543236E-4,-9.162971E-4,-49.725002,3.6750002,8.325001,,,,,,,,,,,,,,,,,,
SENSOR,1789661154385,40884579496246,0.15074782,0.20249261,9.856934,0.0,3.0543236E-4,-9.162971E-4,-49.725002,3.6750002,8.325001,,,,,,,,,,,,,,,,,,
SENSOR,1789661154385,40884599496246,0.15493527,0.20757736,9.864711,0.0,3.0543236E-4,-9.162971E-4,-49.725002,3.6750002,8.325001,,,,,,,,,,,,,,,,,,
SENSOR,1789661154386,40884619496246,0.1585245,0.20219351,9.868001,0.0,3.0543236E-4,-9.162971E-4,-49.725002,3.6750002,8.325001,,,,,,,,,,,,,,,,,,
SENSOR,1789661154395,40884654496246,0.1585245,0.20219351,9.868001,-4.5814854E-4,3.0543236E-4,3.0543236E-4,-49.725002,3.6750002,8.325001,,,,,,,,,,,,,,,,,,
CELLULAR,1789661154399,,,,,,,,,,,,,,true,NR,4298047490,405,869,,75,403,634080,-109,NR_SS_RSRP,3,
SENSOR,1789661154422,40884664496246,0.1585245,0.20219351,9.868001,-4.5814854E-4,3.0543236E-4,3.0543236E-4,-49.800003,4.2000003,7.05,,,,,,,,,,,,,,,,,,
SENSOR,1789661154482,40884639496246,0.16031912,0.2015953,9.870094,-4.5814854E-4,3.0543236E-4,3.0543236E-4,-49.800003,4.2000003,7.05,,,,,,,,,,,,,,,,,,
SENSOR,1789661154482,40884659496246,0.1582254,0.19950159,9.865907,-4.5814854E-4,3.0543236E-4,3.0543236E-4,-49.800003,4.2000003,7.05,,,,,,,,,,,,,,,,,,
SENSOR,1789661154482,40884679496246,0.15523437,0.22342981,9.876375,-4.5814854E-4,3.0543236E-4,3.0543236E-4,-49.800003,4.2000003,7.05,,,,,,,,,,,,,,,,,,
SENSOR,1789661154483,40884699496246,0.1594218,0.18335004,9.85155,-4.5814854E-4,3.0543236E-4,3.0543236E-4,-49.800003,4.2000003,7.05,,,,,,,,,,,,,,,,,,
SENSOR,1789661154483,40884719496246,0.15613168,0.21296121,9.868897,-4.5814854E-4,3.0543236E-4,3.0543236E-4,-49.800003,4.2000003,7.05,,,,,,,,,,,,,,,,,,
SENSOR,1789661154483,40884739496246,0.15134603,0.22313072,9.880263,-4.5814854E-4,3.0543236E-4,3.0543236E-4,-49.800003,4.2000003,7.05,,,,,,,,,,,,,,,,,,
SENSOR,1789661154499,40884754496246,0.15134603,0.22313072,9.880263,-0.0010690133,1.5271618E-4,3.0543236E-4,-49.800003,4.2000003,7.05,,,,,,,,,,,,,,,,,,
SENSOR,1789661154518,40884764496246,0.15134603,0.22313072,9.880263,-0.0010690133,1.5271618E-4,3.0543236E-4,-49.800003,3.9,7.275,,,,,,,,,,,,,,,,,,
SENSOR,1789661154584,40884759496246,0.1582254,0.18514465,9.84497,-0.0010690133,1.5271618E-4,3.0543236E-4,-49.800003,3.9,7.275,,,,,,,,,,,,,,,,,,
SENSOR,1789661154585,40884779496246,0.15553348,0.1905285,9.873085,-0.0010690133,1.5271618E-4,3.0543236E-4,-49.800003,3.9,7.275,,,,,,,,,,,,,,,,,,
SENSOR,1789661154585,40884799496246,0.15314065,0.21565314,9.870094,-0.0010690133,1.5271618E-4,3.0543236E-4,-49.800003,3.9,7.275,,,,,,,,,,,,,,,,,,
SENSOR,1789661154585,40884819496246,0.16301104,0.17318054,9.860523,-0.0010690133,1.5271618E-4,3.0543236E-4,-49.800003,3.9,7.275,,,,,,,,,,,,,,,,,,
SENSOR,1789661154595,40884854496246,0.16301104,0.17318054,9.860523,0.0,-4.5814854E-4,3.0543236E-4,-49.800003,3.9,7.275,,,,,,,,,,,,,,,,,,
SENSOR,1789661154612,40884864496246,0.16301104,0.17318054,9.860523,0.0,-4.5814854E-4,3.0543236E-4,-49.500004,3.9,7.275,,,,,,,,,,,,,,,,,,
SENSOR,1789661154682,40884839496246,0.15104693,0.22881366,9.8682995,0.0,-4.5814854E-4,3.0543236E-4,-49.500004,3.9,7.275,,,,,,,,,,,,,,,,,,
SENSOR,1789661154682,40884859496246,0.16181463,0.17796618,9.858429,0.0,-4.5814854E-4,3.0543236E-4,-49.500004,3.9,7.275,,,,,,,,,,,,,,,,,,
SENSOR,1789661154682,40884879496246,0.15224335,0.22761725,9.870394,0.0,-4.5814854E-4,3.0543236E-4,-49.500004,3.9,7.275,,,,,,,,,,,,,,,,,,
SENSOR,1789661154684,40884899496246,0.16031912,0.18783657,9.864112,0.0,-4.5814854E-4,3.0543236E-4,-49.500004,3.9,7.275,,,,,,,,,,,,,,,,,,
SENSOR,1789661154684,40884919496246,0.15343975,0.20997019,9.867702,0.0,-4.5814854E-4,3.0543236E-4,-49.500004,3.9,7.275,,,,,,,,,,,,,,,,,,
SENSOR,1789661154684,40884939496246,0.15134603,0.19501504,9.867702,0.0,-4.5814854E-4,3.0543236E-4,-49.500004,3.9,7.275,,,,,,,,,,,,,,,,,,
SENSOR,1789661154698,40884954496246,0.15134603,0.19501504,9.867702,0.0,-7.635809E-4,-7.635809E-4,-49.500004,3.9,7.275,,,,,,,,,,,,,,,,,,
SENSOR,1789661154717,40884964496246,0.15134603,0.19501504,9.867702,0.0,-7.635809E-4,-7.635809E-4,-49.500004,3.7500002,6.9750004,,,,,,,,,,,,,,,,,,
SENSOR,1789661154784,40884959496246,0.1585245,0.2000998,9.865608,0.0,-7.635809E-4,-7.635809E-4,-49.500004,3.7500002,6.9750004,,,,,,,,,,,,,,,,,,
SENSOR,1789661154784,40884979496246,0.1591227,0.20727827,9.868599,0.0,-7.635809E-4,-7.635809E-4,-49.500004,3.7500002,6.9750004,,,,,,,,,,,,,,,,,,
SENSOR,1789661154784,40884999496246,0.16091733,0.19381863,9.8632145,0.0,-7.635809E-4,-7.635809E-4,-49.500004,3.7500002,6.9750004,,,,,,,,,,,,,,,,,,
SENSOR,1789661154785,40885019496246,0.15702899,0.21355942,9.872188,0.0,-7.635809E-4,-7.635809E-4,-49.500004,3.7500002,6.9750004,,,,,,,,,,,,,,,,,,
SENSOR,1789661154795,40885054496246,0.15702899,0.21355942,9.872188,0.0,0.0010690133,3.0543236E-4,-49.500004,3.7500002,6.9750004,,,,,,,,,,,,,,,,,,
SENSOR,1789661154812,40885064496246,0.15702899,0.21355942,9.872188,0.0,0.0010690133,3.0543236E-4,-49.500004,3.9,7.2000003,,,,,,,,,,,,,,,,,,
SENSOR,1789661154823,40885039496246,0.15583257,0.17796618,9.869795,0.0,0.0010690133,3.0543236E-4,-49.500004,3.9,7.2000003,,,,,,,,,,,,,,,,,,
SENSOR,1789661154823,40885059496246,0.15463616,0.2335993,9.848558,0.0,0.0010690133,3.0543236E-4,-49.500004,3.9,7.2000003,,,,,,,,,,,,,,,,,,
SENSOR,1789661154884,40885079496246,0.16121642,0.18604197,9.866804,0.0,0.0010690133,3.0543236E-4,-49.500004,3.9,7.2000003,,,,,,,,,,,,,,,,,,
SENSOR,1789661154884,40885099496246,0.15284155,0.20398813,9.859925,0.0,0.0010690133,3.0543236E-4,-49.500004,3.9,7.2000003,,,,,,,,,,,,,,,,,,
SENSOR,1789661154884,40885119496246,0.15702899,0.20219351,9.865608,0.0,0.0010690133,3.0543236E-4,-49.500004,3.9,7.2000003,,,,,,,,,,,,,,,,,,
SENSOR,1789661154884,40885139496246,0.1594218,0.19351953,9.865608,0.0,0.0010690133,3.0543236E-4,-49.500004,3.9,7.2000003,,,,,,,,,,,,,,,,,,
SENSOR,1789661154899,40885154496246,0.1594218,0.19351953,9.865608,-0.0010690133,3.0543236E-4,1.5271618E-4,-49.500004,3.9,7.2000003,,,,,,,,,,,,,,,,,,
GNSS,1789661154908,,true,11.05533129,76.92708192,357.947021484375,9.43574,0.0,,94,31,,,,,,,,,,,,,
SENSOR,1789661154922,40885164496246,0.1594218,0.19351953,9.865608,-0.0010690133,3.0543236E-4,1.5271618E-4,-49.725002,3.9750001,6.7500005,,,,,,,,,,,,,,,,,,
GNSS,1789661155000,,true,11.0553283,76.92708624,363.37506103515625,3.9344738,0.0,,94,31,,,,,,,,,,,,,
SENSOR,1789661154984,40885159496246,0.15672988,0.20907287,9.869795,-0.0010690133,3.0543236E-4,1.5271618E-4,-49.725002,3.9750001,6.7500005,,,,,,,,,,,,,,,,,,
SENSOR,1789661154984,40885179496246,0.15403795,0.19740787,9.858429,-0.0010690133,3.0543236E-4,1.5271618E-4,-49.725002,3.9750001,6.7500005,,,,,,,,,,,,,,,,,,
SENSOR,1789661154984,40885199496246,0.15523437,0.2108675,9.866505,-0.0010690133,3.0543236E-4,1.5271618E-4,-49.725002,3.9750001,6.7500005,,,,,,,,,,,,,,,,,,
SENSOR,1789661154984,40885219496246,0.15553348,0.19740787,9.866804,-0.0010690133,3.0543236E-4,1.5271618E-4,-49.725002,3.9750001,6.7500005,,,,,,,,,,,,,,,,,,
SENSOR,1789661154994,40885254496246,0.15553348,0.19740787,9.866804,1.5271618E-4,3.0543236E-4,1.5271618E-4,-49.725002,3.9750001,6.7500005,,,,,,,,,,,,,,,,,,
SENSOR,1789661155012,40885264496246,0.15553348,0.19740787,9.866804,1.5271618E-4,3.0543236E-4,1.5271618E-4,-49.725002,3.9,7.5750003,,,,,,,,,,,,,,,,,,
SENSOR,1789661155034,40885239496246,0.15224335,0.20488544,9.865309,1.5271618E-4,3.0543236E-4,1.5271618E-4,-49.725002,3.9,7.5750003,,,,,,,,,,,,,,,,,,
SENSOR,1789661155035,40885259496246,0.16061822,0.19381863,9.864711,1.5271618E-4,3.0543236E-4,1.5271618E-4,-49.725002,3.9,7.5750003,,,,,,,,,,,,,,,,,,
SENSOR,1789661155035,40885279496246,0.15523437,0.20309082,9.861121,1.5271618E-4,3.0543236E-4,1.5271618E-4,-49.725002,3.9,7.5750003,,,,,,,,,,,,,,,,,,
SENSOR,1789661155084,40885299496246,0.1585245,0.20548365,9.858728,1.5271618E-4,3.0543236E-4,1.5271618E-4,-49.725002,3.9,7.5750003,,,,,,,,,,,,,,,,,,
SENSOR,1789661155084,40885319496246,0.15583257,0.20368902,9.864112,1.5271618E-4,3.0543236E-4,1.5271618E-4,-49.725002,3.9,7.5750003,,,,,,,,,,,,,,,,,,
SENSOR,1789661155099,40885354496246,0.15583257,0.20368902,9.864112,1.5271618E-4,3.0543236E-4,-7.635809E-4,-49.725002,3.9,7.5750003,,,,,,,,,,,,,,,,,,
SENSOR,1789661155116,40885364496246,0.15583257,0.20368902,9.864112,1.5271618E-4,3.0543236E-4,-7.635809E-4,-49.500004,3.9750001,7.8750005,,,,,,,,,,,,,,,,,,
SENSOR,1789661155185,40885339496246,0.15702899,0.20548365,9.868599,1.5271618E-4,3.0543236E-4,-7.635809E-4,-49.500004,3.9750001,7.8750005,,,,,,,,,,,,,,,,,,
SENSOR,1789661155185,40885359496246,0.15972091,0.20548365,9.866206,1.5271618E-4,3.0543236E-4,-7.635809E-4,-49.500004,3.9750001,7.8750005,,,,,,,,,,,,,,,,,,
SENSOR,1789661155185,40885379496246,0.15792629,0.20548365,9.865608,1.5271618E-4,3.0543236E-4,-7.635809E-4,-49.500004,3.9750001,7.8750005,,,,,,,,,,,,,,,,,,
SENSOR,1789661155185,40885399496246,0.1585245,0.20129621,9.870992,1.5271618E-4,3.0543236E-4,-7.635809E-4,-49.500004,3.9750001,7.8750005,,,,,,,,,,,,,,,,,,
SENSOR,1789661155186,40885419496246,0.15373886,0.20249261,9.870992,1.5271618E-4,3.0543236E-4,-7.635809E-4,-49.500004,3.9750001,7.8750005,,,,,,,,,,,,,,,,,,
SENSOR,1789661155194,40885454496246,0.15373886,0.20249261,9.870992,1.5271618E-4,3.0543236E-4,1.5271618E-4,-49.500004,3.9750001,7.8750005,,,,,,,,,,,,,,,,,,
SENSOR,1789661155211,40885464496246,0.15373886,0.20249261,9.870992,1.5271618E-4,3.0543236E-4,1.5271618E-4,-49.95,3.7500002,7.1250005,,,,,,,,,,,,,,,,,,
SENSOR,1789661155286,40885439496246,0.15373886,0.20428723,9.865009,1.5271618E-4,3.0543236E-4,1.5271618E-4,-49.95,3.7500002,7.1250005,,,,,,,,,,,,,,,,,,
SENSOR,1789661155287,40885459496246,0.15583257,0.20488544,9.866206,1.5271618E-4,3.0543236E-4,1.5271618E-4,-49.95,3.7500002,7.1250005,,,,,,,,,,,,,,,,,,
SENSOR,1789661155287,40885479496246,0.1594218,0.2009971,9.865009,1.5271618E-4,3.0543236E-4,1.5271618E-4,-49.95,3.7500002,7.1250005,,,,,,,,,,,,,,,,,,
SENSOR,1789661155287,40885499496246,0.15882361,0.20458634,9.861421,1.5271618E-4,3.0543236E-4,1.5271618E-4,-49.95,3.7500002,7.1250005,,,,,,,,,,,,,,,,,,
SENSOR,1789661155288,40885519496246,0.1582254,0.20368902,9.865009,1.5271618E-4,3.0543236E-4,1.5271618E-4,-49.95,3.7500002,7.1250005,,,,,,,,,,,,,,,,,,
SENSOR,1789661155298,40885554496246,0.1582254,0.20368902,9.865009,1.5271618E-4,3.0543236E-4,1.5271618E-4,-49.95,3.7500002,7.1250005,,,,,,,,,,,,,,,,,,
SENSOR,1789661155318,40885564496246,0.1582254,0.20368902,9.865009,1.5271618E-4,3.0543236E-4,1.5271618E-4,-50.025,3.6750002,7.5750003,,,,,,,,,,,,,,,,,,
SENSOR,1789661155385,40885539496246,0.16181463,0.19860429,9.870394,1.5271618E-4,3.0543236E-4,1.5271618E-4,-50.025,3.6750002,7.5750003,,,,,,,,,,,,,,,,,,
SENSOR,1789661155385,40885559496246,0.15403795,0.20338993,9.870094,1.5271618E-4,3.0543236E-4,1.5271618E-4,-50.025,3.6750002,7.5750003,,,,,,,,,,,,,,,,,,
SENSOR,1789661155385,40885579496246,0.16211374,0.20338993,9.870394,1.5271618E-4,3.0543236E-4,1.5271618E-4,-50.025,3.6750002,7.5750003,,,,,,,,,,,,,,,,,,
SENSOR,1789661155385,40885599496246,0.15732808,0.20338993,9.865009,1.5271618E-4,3.0543236E-4,1.5271618E-4,-50.025,3.6750002,7.5750003,,,,,,,,,,,,,,,,,,
SENSOR,1789661155385,40885619496246,0.15403795,0.19830517,9.870094,1.5271618E-4,3.0543236E-4,1.5271618E-4,-50.025,3.6750002,7.5750003,,,,,,,,,,,,,,,,,,
SENSOR,1789661155385,40885639496246,0.1582254,0.19950159,9.863813,1.5271618E-4,3.0543236E-4,1.5271618E-4,-50.025,3.6750002,7.5750003,,,,,,,,,,,,,,,,,,
SENSOR,1789661155393,40885654496246,0.1582254,0.19950159,9.863813,1.5271618E-4,-0.0,-1.5271618E-4,-50.025,3.6750002,7.5750003,,,,,,,,,,,,,,,,,,
SENSOR,1789661155421,40885664496246,0.1582254,0.19950159,9.863813,1.5271618E-4,-0.0,-1.5271618E-4,-49.800003,3.7500002,7.8,,,,,,,,,,,,,,,,,,
CELLULAR,1789661155422,,,,,,,,,,,,,,true,NR,4298047490,405,869,,75,403,634080,-109,NR_SS_RSRP,3,
SENSOR,1789661155484,40885659496246,0.16031912,0.20189442,9.860822,1.5271618E-4,-0.0,-1.5271618E-4,-49.800003,3.7500002,7.8,,,,,,,,,,,,,,,,,,
SENSOR,1789661155485,40885679496246,0.15523437,0.20368902,9.865009,1.5271618E-4,-0.0,-1.5271618E-4,-49.800003,3.7500002,7.8,,,,,,,,,,,,,,,,,,
SENSOR,1789661155485,40885699496246,0.15643078,0.20428723,9.861121,1.5271618E-4,-0.0,-1.5271618E-4,-49.800003,3.7500002,7.8,,,,,,,,,,,,,,,,,,
SENSOR,1789661155485,40885719496246,0.15553348,0.19890338,9.867702,1.5271618E-4,-0.0,-1.5271618E-4,-49.800003,3.7500002,7.8,,,,,,,,,,,,,,,,,,
SENSOR,1789661155498,40885754496246,0.15553348,0.19890338,9.867702,1.5271618E-4,-6.108647E-4,-1.5271618E-4,-49.800003,3.7500002,7.8,,,,,,,,,,,,,,,,,,
SENSOR,1789661155515,40885764496246,0.15553348,0.19890338,9.867702,1.5271618E-4,-6.108647E-4,-1.5271618E-4,-50.550003,3.9750001,7.2000003,,,,,,,,,,,,,,,,,,
SENSOR,1789661155587,40885739496246,0.15672988,0.19531415,9.863813,1.5271618E-4,-6.108647E-4,-1.5271618E-4,-50.550003,3.9750001,7.2000003,,,,,,,,,,,,,,,,,,
SENSOR,1789661155587,40885759496246,0.1585245,0.20279172,9.861421,1.5271618E-4,-6.108647E-4,-1.5271618E-4,-50.550003,3.9750001,7.2000003,,,,,,,,,,,,,,,,,,
SENSOR,1789661155587,40885779496246,0.15972091,0.19980069,9.859626,1.5271618E-4,-6.108647E-4,-1.5271618E-4,-50.550003,3.9750001,7.2000003,,,,,,,,,,,,,,,,,,
SENSOR,1789661155587,40885799496246,0.15463616,0.21625134,9.884451,1.5271618E-4,-6.108647E-4,-1.5271618E-4,-50.550003,3.9750001,7.2000003,,,,,,,,,,,,,,,,,,
SENSOR,1789661155588,40885819496246,0.15463616,0.19740787,9.853943,1.5271618E-4,-6.108647E-4,-1.5271618E-4,-50.550003,3.9750001,7.2000003,,,,,,,,,,,,,,,,,,
SENSOR,1789661155588,40885839496246,0.15343975,0.20219351,9.866505,1.5271618E-4,-6.108647E-4,-1.5271618E-4,-50.550003,3.9750001,7.2000003,,,,,,,,,,,,,,,,,,
SENSOR,1789661155593,40885854496246,0.15343975,0.20219351,9.866505,1.5271618E-4,3.0543236E-4,1.5271618E-4,-50.550003,3.9750001,7.2000003,,,,,,,,,,,,,,,,,,
SENSOR,1789661155620,40885864496246,0.15343975,0.20219351,9.866505,1.5271618E-4,3.0543236E-4,1.5271618E-4,-50.025,3.9750001,7.8,,,,,,,,,,,,,,,,,,
SENSOR,1789661155685,40885859496246,0.15403795,0.20249261,9.869197,1.5271618E-4,3.0543236E-4,1.5271618E-4,-50.025,3.9750001,7.8,,,,,,,,,,,,,,,,,,
SENSOR,1789661155686,40885879496246,0.15792629,0.20488544,9.871889,1.5271618E-4,3.0543236E-4,1.5271618E-4,-50.025,3.9750001,7.8,,,,,,,,,,,,,,,,,,
SENSOR,1789661155686,40885899496246,0.16002001,0.20219351,9.866804,1.5271618E-4,3.0543236E-4,1.5271618E-4,-50.025,3.9750001,7.8,,,,,,,,,,,,,,,,,,
SENSOR,1789661155686,40885919496246,0.15732808,0.20189442,9.869496,1.5271618E-4,3.0543236E-4,1.5271618E-4,-50.025,3.9750001,7.8,,,,,,,,,,,,,,,,,,
SENSOR,1789661155698,40885954496246,0.15732808,0.20189442,9.869496,1.5271618E-4,3.0543236E-4,1.5271618E-4,-50.025,3.9750001,7.8,,,,,,,,,,,,,,,,,,
SENSOR,1789661155715,40885964496246,0.15732808,0.20189442,9.869496,1.5271618E-4,3.0543236E-4,1.5271618E-4,-49.875004,3.7500002,6.7500005,,,,,,,,,,,,,,,,,,
SENSOR,1789661155786,40885939496246,0.16211374,0.2009971,9.857532,1.5271618E-4,3.0543236E-4,1.5271618E-4,-49.875004,3.7500002,6.7500005,,,,,,,,,,,,,,,,,,
SENSOR,1789661155786,40885959496246,0.15732808,0.20249261,9.867702,1.5271618E-4,3.0543236E-4,1.5271618E-4,-49.875004,3.7500002,6.7500005,,,,,,,,,,,,,,,,,,
SENSOR,1789661155787,40885979496246,0.15433706,0.20428723,9.868599,1.5271618E-4,3.0543236E-4,1.5271618E-4,-49.875004,3.7500002,6.7500005,,,,,,,,,,,,,,,,,,
SENSOR,1789661155787,40885999496246,0.1585245,0.20548365,9.865907,1.5271618E-4,3.0543236E-4,1.5271618E-4,-49.875004,3.7500002,6.7500005,,,,,,,,,,,,,,,,,,
SENSOR,1789661155787,40886019496246,0.15882361,0.20727827,9.867402,1.5271618E-4,3.0543236E-4,1.5271618E-4,-49.875004,3.7500002,6.7500005,,,,,,,,,,,,,,,,,,
SENSOR,1789661155788,40886039496246,0.16151553,0.20219351,9.860523,1.5271618E-4,3.0543236E-4,1.5271618E-4,-49.875004,3.7500002,6.7500005,,,,,,,,,,,,,,,,,,
SENSOR,1789661155792,40886054496246,0.16151553,0.20219351,9.860523,1.5271618E-4,0.0015271618,-0.0,-49.875004,3.7500002,6.7500005,,,,,,,,,,,,,,,,,,
SENSOR,1789661155819,40886064496246,0.16151553,0.20219351,9.860523,1.5271618E-4,0.0015271618,-0.0,-49.350002,3.9,7.425,,,,,,,,,,,,,,,,,,
SENSOR,1789661155860,40886059496246,0.15493527,0.20608185,9.865608,1.5271618E-4,0.0015271618,-0.0,-49.350002,3.9,7.425,,,,,,,,,,,,,,,,,,
SENSOR,1789661155861,40886079496246,0.15463616,0.21894327,9.877871,1.5271618E-4,0.0015271618,-0.0,-49.350002,3.9,7.425,,,,,,,,,,,,,,,,,,
SENSOR,1789661155861,40886099496246,0.15583257,0.1893321,9.855438,1.5271618E-4,0.0015271618,-0.0,-49.350002,3.9,7.425,,,,,,,,,,,,,,,,,,
SENSOR,1789661155885,40886119496246,0.15672988,0.19980069,9.866804,1.5271618E-4,0.0015271618,-0.0,-49.350002,3.9,7.425,,,,,,,,,,,,,,,,,,
SENSOR,1789661155898,40886154496246,0.15672988,0.19980069,9.866804,1.5271618E-4,-6.108647E-4,1.5271618E-4,-49.350002,3.9,7.425,,,,,,,,,,,,,,,,,,
GNSS,1789661155914,,true,11.0553283,76.92708624,363.37506103515625,3.9344738,0.0,,94,27,,,,,,,,,,,,,
SENSOR,1789661155929,40886164496246,0.15672988,0.19980069,9.866804,1.5271618E-4,-6.108647E-4,1.5271618E-4,-50.025,4.05,7.65,,,,,,,,,,,,,,,,,,
GNSS,1789661156000,,true,11.05531038,76.92707908,366.126953125,3.7900925,0.0,,94,27,,,,,,,,,,,,,
SENSOR,1789661155985,40886139496246,0.15672988,0.20398813,9.858429,1.5271618E-4,-6.108647E-4,1.5271618E-4,-50.025,4.05,7.65,,,,,,,,,,,,,,,,,,
SENSOR,1789661155985,40886159496246,0.15882361,0.19531415,9.855438,1.5271618E-4,-6.108647E-4,1.5271618E-4,-50.025,4.05,7.65,,,,,,,,,,,,,,,,,,
SENSOR,1789661155986,40886179496246,0.15672988,0.20877378,9.865608,1.5271618E-4,-6.108647E-4,1.5271618E-4,-50.025,4.05,7.65,,,,,,,,,,,,,,,,,,
SENSOR,1789661155986,40886199496246,0.15882361,0.19441684,9.857831,1.5271618E-4,-6.108647E-4,1.5271618E-4,-50.025,4.05,7.65,,,,,,,,,,,,,,,,,,
SENSOR,1789661155986,40886219496246,0.15343975,0.20787647,9.864112,1.5271618E-4,-6.108647E-4,1.5271618E-4,-50.025,4.05,7.65,,,,,,,,,,,,,,,,,,
SENSOR,1789661155986,40886239496246,0.15373886,0.19531415,9.864711,1.5271618E-4,-6.108647E-4,1.5271618E-4,-50.025,4.05,7.65,,,,,,,,,,,,,,,,,,
SENSOR,1789661155992,40886254496246,0.15373886,0.19531415,9.864711,1.5271618E-4,-9.162971E-4,1.5271618E-4,-50.025,4.05,7.65,,,,,,,,,,,,,,,,,,
SENSOR,1789661156020,40886264496246,0.15373886,0.19531415,9.864711,1.5271618E-4,-9.162971E-4,1.5271618E-4,-49.875004,3.45,7.5000005,,,,,,,,,,,,,,,,,,
SENSOR,1789661156062,40886259496246,0.15164514,0.20817557,9.860523,1.5271618E-4,-9.162971E-4,1.5271618E-4,-49.875004,3.45,7.5000005,,,,,,,,,,,,,,,,,,
SENSOR,1789661156062,40886279496246,0.15882361,0.19591236,9.866206,1.5271618E-4,-9.162971E-4,1.5271618E-4,-49.875004,3.45,7.5000005,,,,,,,,,,,,,,,,,,
SENSOR,1789661156062,40886299496246,0.15553348,0.20518455,9.860224,1.5271618E-4,-9.162971E-4,1.5271618E-4,-49.875004,3.45,7.5000005,,,,,,,,,,,,,,,,,,
SENSOR,1789661156063,40886319496246,0.15373886,0.20039889,9.870394,1.5271618E-4,-9.162971E-4,1.5271618E-4,-49.875004,3.45,7.5000005,,,,,,,,,,,,,,,,,,
SENSOR,1789661156097,40886354496246,0.15373886,0.20039889,9.870394,1.5271618E-4,3.0543236E-4,1.5271618E-4,-49.875004,3.45,7.5000005,,,,,,,,,,,,,,,,,,
SENSOR,1789661156114,40886364496246,0.15373886,0.20039889,9.870394,1.5271618E-4,3.0543236E-4,1.5271618E-4,-49.65,3.6750002,7.275,,,,,,,,,,,,,,,,,,
SENSOR,1789661156184,40886339496246,0.15882361,0.20219351,9.87159,1.5271618E-4,3.0543236E-4,1.5271618E-4,-49.65,3.6750002,7.275,,,,,,,,,,,,,,,,,,
SENSOR,1789661156184,40886359496246,0.16091733,0.20548365,9.8632145,1.5271618E-4,3.0543236E-4,1.5271618E-4,-49.65,3.6750002,7.275,,,,,,,,,,,,,,,,,,
SENSOR,1789661156184,40886379496246,0.15972091,0.20129621,9.867402,1.5271618E-4,3.0543236E-4,1.5271618E-4,-49.65,3.6750002,7.275,,,,,,,,,,,,,,,,,,
SENSOR,1789661156184,40886399496246,0.15702899,0.20727827,9.872487,1.5271618E-4,3.0543236E-4,1.5271618E-4,-49.65,3.6750002,7.275,,,,,,,,,,,,,,,,,,
SENSOR,1789661156185,40886419496246,0.1582254,0.19680966,9.862318,1.5271618E-4,3.0543236E-4,1.5271618E-4,-49.65,3.6750002,7.275,,,,,,,,,,,,,,,,,,
SENSOR,1789661156185,40886439496246,0.15882361,0.20727827,9.863514,1.5271618E-4,3.0543236E-4,1.5271618E-4,-49.65,3.6750002,7.275,,,,,,,,,,,,,,,,,,
SENSOR,1789661156192,40886454496246,0.15882361,0.20727827,9.863514,1.5271618E-4,-9.162971E-4,1.5271618E-4,-49.65,3.6750002,7.275,,,,,,,,,,,,,,,,,,
SENSOR,1789661156220,40886464496246,0.15882361,0.20727827,9.863514,1.5271618E-4,-9.162971E-4,1.5271618E-4,-49.95,3.825,7.8,,,,,,,,,,,,,,,,,,
SENSOR,1789661156285,40886459496246,0.16181463,0.19202402,9.867104,1.5271618E-4,-9.162971E-4,1.5271618E-4,-49.95,3.825,7.8,,,,,,,,,,,,,,,,,,
SENSOR,1789661156285,40886479496246,0.14985052,0.20309082,9.865309,1.5271618E-4,-9.162971E-4,1.5271618E-4,-49.95,3.825,7.8,,,,,,,,,,,,,,,,,,
SENSOR,1789661156286,40886499496246,0.1585245,0.19710876,9.868599,1.5271618E-4,-9.162971E-4,1.5271618E-4,-49.95,3.825,7.8,,,,,,,,,,,,,,,,,,
SENSOR,1789661156286,40886519496246,0.15702899,0.20608185,9.864411,1.5271618E-4,-9.162971E-4,1.5271618E-4,-49.95,3.825,7.8,,,,,,,,,,,,,,,,,,
SENSOR,1789661156296,40886554496246,0.15702899,0.20608185,9.864411,1.5271618E-4,3.0543236E-4,1.5271618E-4,-49.95,3.825,7.8,,,,,,,,,,,,,,,,,,
SENSOR,1789661156314,40886564496246,0.15702899,0.20608185,9.864411,1.5271618E-4,3.0543236E-4,1.5271618E-4,-50.175003,3.525,8.1,,,,,,,,,,,,,,,,,,
SENSOR,1789661156383,40886539496246,0.15403795,0.20279172,9.864711,1.5271618E-4,3.0543236E-4,1.5271618E-4,-50.175003,3.525,8.1,,,,,,,,,,,,,,,,,,
SENSOR,1789661156383,40886559496246,0.15373886,0.20817557,9.862617,1.5271618E-4,3.0543236E-4,1.5271618E-4,-50.175003,3.525,8.1,,,,,,,,,,,,,,,,,,
SENSOR,1789661156384,40886579496246,0.1585245,0.20488544,9.872487,1.5271618E-4,3.0543236E-4,1.5271618E-4,-50.175003,3.525,8.1,,,,,,,,,,,,,,,,,,
SENSOR,1789661156384,40886599496246,0.15433706,0.2000998,9.862916,1.5271618E-4,3.0543236E-4,1.5271618E-4,-50.175003,3.525,8.1,,,,,,,,,,,,,,,,,,
SENSOR,1789661156384,40886619496246,0.15792629,0.20578274,9.8682995,1.5271618E-4,3.0543236E-4,1.5271618E-4,-50.175003,3.525,8.1,,,,,,,,,,,,,,,,,,
SENSOR,1789661156384,40886639496246,0.15882361,0.200698,9.858728,1.5271618E-4,3.0543236E-4,1.5271618E-4,-50.175003,3.525,8.1,,,,,,,,,,,,,,,,,,
SENSOR,1789661156391,40886654496246,0.15882361,0.200698,9.858728,0.0012217294,3.0543236E-4,1.5271618E-4,-50.175003,3.525,8.1,,,,,,,,,,,,,,,,,,
SENSOR,1789661156418,40886664496246,0.15882361,0.200698,9.858728,0.0012217294,3.0543236E-4,1.5271618E-4,-49.500004,3.825,6.4500003,,,,,,,,,,,,,,,,,,
CELLULAR,1789661156450,,,,,,,,,,,,,,true,NR,4298047490,405,869,,75,403,634080,-109,NR_SS_RSRP,3,
SENSOR,1789661156486,40886659496246,0.15433706,0.20967108,9.862617,0.0012217294,3.0543236E-4,1.5271618E-4,-49.500004,3.825,6.4500003,,,,,,,,,,,,,,,,,,
SENSOR,1789661156486,40886679496246,0.1591227,0.20129621,9.870394,0.0012217294,3.0543236E-4,1.5271618E-4,-49.500004,3.825,6.4500003,,,,,,,,,,,,,,,,,,
SENSOR,1789661156487,40886699496246,0.15314065,0.20638095,9.868599,0.0012217294,3.0543236E-4,1.5271618E-4,-49.500004,3.825,6.4500003,,,,,,,,,,,,,,,,,,
SENSOR,1789661156487,40886719496246,0.15702899,0.19411774,9.8632145,0.0012217294,3.0543236E-4,1.5271618E-4,-49.500004,3.825,6.4500003,,,,,,,,,,,,,,,,,,
SENSOR,1789661156495,40886754496246,0.15702899,0.19411774,9.8632145,1.5271618E-4,3.0543236E-4,-4.5814854E-4,-49.500004,3.825,6.4500003,,,,,,,,,,,,,,,,,,
SENSOR,1789661156513,40886764496246,0.15702899,0.19411774,9.8632145,1.5271618E-4,3.0543236E-4,-4.5814854E-4,-49.800003,3.9750001,6.8250003,,,,,,,,,,,,,,,,,,
SENSOR,1789661156583,40886739496246,0.15493527,0.2000998,9.8632145,1.5271618E-4,3.0543236E-4,-4.5814854E-4,-49.800003,3.9750001,6.8250003,,,,,,,,,,,,,,,,,,
SENSOR,1789661156584,40886759496246,0.15672988,0.19591236,9.864112,1.5271618E-4,3.0543236E-4,-4.5814854E-4,-49.800003,3.9750001,6.8250003,,,,,,,,,,,,,,,,,,
SENSOR,1789661156584,40886779496246,0.15732808,0.20787647,9.868599,1.5271618E-4,3.0543236E-4,-4.5814854E-4,-49.800003,3.9750001,6.8250003,,,,,,,,,,,,,,,,,,
SENSOR,1789661156584,40886799496246,0.15493527,0.20039889,9.863813,1.5271618E-4,3.0543236E-4,-4.5814854E-4,-49.800003,3.9750001,6.8250003,,,,,,,,,,,,,,,,,,
SENSOR,1789661156584,40886819496246,0.15493527,0.20129621,9.866206,1.5271618E-4,3.0543236E-4,-4.5814854E-4,-49.800003,3.9750001,6.8250003,,,,,,,,,,,,,,,,,,
SENSOR,1789661156584,40886839496246,0.15613168,0.20458634,9.864711,1.5271618E-4,3.0543236E-4,-4.5814854E-4,-49.800003,3.9750001,6.8250003,,,,,,,,,,,,,,,,,,
SENSOR,1789661156591,40886854496246,0.15613168,0.20458634,9.864711,1.5271618E-4,-9.162971E-4,1.5271618E-4,-49.800003,3.9750001,6.8250003,,,,,,,,,,,,,,,,,,
SENSOR,1789661156617,40886864496246,0.15613168,0.20458634,9.864711,1.5271618E-4,-9.162971E-4,1.5271618E-4,-50.100002,3.825,7.8,,,,,,,,,,,,,,,,,,
SENSOR,1789661156686,40886859496246,0.15882361,0.200698,9.871889,1.5271618E-4,-9.162971E-4,1.5271618E-4,-50.100002,3.825,7.8,,,,,,,,,,,,,,,,,,
SENSOR,1789661156686,40886879496246,0.15583257,0.20428723,9.870094,1.5271618E-4,-9.162971E-4,1.5271618E-4,-50.100002,3.825,7.8,,,,,,,,,,,,,,,,,,
SENSOR,1789661156686,40886899496246,0.1582254,0.19770697,9.858728,1.5271618E-4,-9.162971E-4,1.5271618E-4,-50.100002,3.825,7.8,,,,,,,,,,,,,,,,,,
SENSOR,1789661156686,40886919496246,0.16061822,0.20697916,9.865309,1.5271618E-4,-9.162971E-4,1.5271618E-4,-50.100002,3.825,7.8,,,,,,,,,,,,,,,,,,
SENSOR,1789661156696,40886954496246,0.16061822,0.20697916,9.865309,1.5271618E-4,3.0543236E-4,-4.5814854E-4,-50.100002,3.825,7.8,,,,,,,,,,,,,,,,,,
SENSOR,1789661156713,40886964496246,0.16061822,0.20697916,9.865309,1.5271618E-4,3.0543236E-4,-4.5814854E-4,-49.95,3.825,7.9500003,,,,,,,,,,,,,,,,,,
SENSOR,1789661156782,40886939496246,0.15553348,0.19651055,9.862318,1.5271618E-4,3.0543236E-4,-4.5814854E-4,-49.95,3.825,7.9500003,,,,,,,,,,,,,,,,,,
SENSOR,1789661156782,40886959496246,0.1576272,0.20518455,9.867104,1.5271618E-4,3.0543236E-4,-4.5814854E-4,-49.95,3.825,7.9500003,,,,,,,,,,,,,,,,,,
SENSOR,1789661156783,40886979496246,0.16031912,0.20129621,9.868897,1.5271618E-4,3.0543236E-4,-4.5814854E-4,-49.95,3.825,7.9500003,,,,,,,,,,,,,,,,,,
SENSOR,1789661156783,40886999496246,0.15972091,0.20309082,9.866804,1.5271618E-4,3.0543236E-4,-4.5814854E-4,-49.95,3.825,7.9500003,,,,,,,,,,,,,,,,,,
SENSOR,1789661156783,40887019496246,0.15672988,0.2015953,9.862318,1.5271618E-4,3.0543236E-4,-4.5814854E-4,-49.95,3.825,7.9500003,,,,,,,,,,,,,,,,,,
SENSOR,1789661156783,40887039496246,0.15882361,0.19980069,9.863813,1.5271618E-4,3.0543236E-4,-4.5814854E-4,-49.95,3.825,7.9500003,,,,,,,,,,,,,,,,,,
SENSOR,1789661156799,40887054496246,0.15882361,0.19980069,9.863813,1.5271618E-4,3.0543236E-4,1.5271618E-4,-49.95,3.825,7.9500003,,,,,,,,,,,,,,,,,,
SENSOR,1789661156818,40887064496246,0.15882361,0.19980069,9.863813,1.5271618E-4,3.0543236E-4,1.5271618E-4,-49.725002,3.825,7.8750005,,,,,,,,,,,,,,,,,,
SENSOR,1789661156885,40887059496246,0.15433706,0.20219351,9.8682995,1.5271618E-4,3.0543236E-4,1.5271618E-4,-49.725002,3.825,7.8750005,,,,,,,,,,,,,,,,,,
SENSOR,1789661156885,40887079496246,0.15463616,0.19770697,9.867402,1.5271618E-4,3.0543236E-4,1.5271618E-4,-49.725002,3.825,7.8750005,,,,,,,,,,,,,,,,,,
SENSOR,1789661156885,40887099496246,0.15373886,0.20129621,9.863813,1.5271618E-4,3.0543236E-4,1.5271618E-4,-49.725002,3.825,7.8750005,,,,,,,,,,,,,,,,,,
SENSOR,1789661156886,40887119496246,0.15613168,0.19860429,9.862318,1.5271618E-4,3.0543236E-4,1.5271618E-4,-49.725002,3.825,7.8750005,,,,,,,,,,,,,,,,,,
SENSOR,1789661156895,40887154496246,0.15613168,0.19860429,9.862318,1.5271618E-4,-3.0543236E-4,1.5271618E-4,-49.725002,3.825,7.8750005,,,,,,,,,,,,,,,,,,
GNSS,1789661156908,,true,11.05531038,76.92707908,366.126953125,3.7900925,0.0,,95,31,,,,,,,,,,,,,
SENSOR,1789661156927,40887164496246,0.15613168,0.19860429,9.862318,1.5271618E-4,-3.0543236E-4,1.5271618E-4,-50.100002,3.7500002,7.1250005,,,,,,,,,,,,,,,,,,
GNSS,1789661157000,,true,11.0553135,76.92707883,368.35595703125,3.7900925,0.0,,95,31,,,,,,,,,,,,,
SENSOR,1789661156984,40887139496246,0.15553348,0.20309082,9.8682995,1.5271618E-4,-3.0543236E-4,1.5271618E-4,-50.100002,3.7500002,7.1250005,,,,,,,,,,,,,,,,,,
SENSOR,1789661156984,40887159496246,0.15314065,0.20249261,9.862617,1.5271618E-4,-3.0543236E-4,1.5271618E-4,-50.100002,3.7500002,7.1250005,,,,,,,,,,,,,,,,,,
SENSOR,1789661156984,40887179496246,0.16061822,0.2015953,9.866505,1.5271618E-4,-3.0543236E-4,1.5271618E-4,-50.100002,3.7500002,7.1250005,,,,,,,,,,,,,,,,,,
SENSOR,1789661156984,40887199496246,0.15463616,0.19950159,9.8682995,1.5271618E-4,-3.0543236E-4,1.5271618E-4,-50.100002,3.7500002,7.1250005,,,,,,,,,,,,,,,,,,
SENSOR,1789661156984,40887219496246,0.1585245,0.20039889,9.866804,1.5271618E-4,-3.0543236E-4,1.5271618E-4,-50.100002,3.7500002,7.1250005,,,,,,,,,,,,,,,,,,
SENSOR,1789661156984,40887239496246,0.15702899,0.19890338,9.867702,1.5271618E-4,-3.0543236E-4,1.5271618E-4,-50.100002,3.7500002,7.1250005,,,,,,,,,,,,,,,,,,
SENSOR,1789661157000,40887254496246,0.15702899,0.19890338,9.867702,1.5271618E-4,3.0543236E-4,-9.162971E-4,-50.100002,3.7500002,7.1250005,,,,,,,,,,,,,,,,,,
SENSOR,1789661157017,40887264496246,0.15702899,0.19890338,9.867702,1.5271618E-4,3.0543236E-4,-9.162971E-4,-50.250004,3.825,7.7250004,,,,,,,,,,,,,,,,,,
SENSOR,1789661157085,40887259496246,0.15643078,0.19980069,9.865009,1.5271618E-4,3.0543236E-4,-9.162971E-4,-50.250004,3.825,7.7250004,,,,,,,,,,,,,,,,,,
SENSOR,1789661157085,40887279496246,0.16031912,0.20548365,9.868599,1.5271618E-4,3.0543236E-4,-9.162971E-4,-50.250004,3.825,7.7250004,,,,,,,,,,,,,,,,,,
SENSOR,1789661157085,40887299496246,0.1585245,0.19740787,9.864411,1.5271618E-4,3.0543236E-4,-9.162971E-4,-50.250004,3.825,7.7250004,,,,,,,,,,,,,,,,,,
SENSOR,1789661157085,40887319496246,0.15373886,0.20548365,9.865309,1.5271618E-4,3.0543236E-4,-9.162971E-4,-50.250004,3.825,7.7250004,,,,,,,,,,,,,,,,,,
SENSOR,1789661157094,40887354496246,0.15373886,0.20548365,9.865309,-4.5814854E-4,-4.5814854E-4,1.5271618E-4,-50.250004,3.825,7.7250004,,,,,,,,,,,,,,,,,,
SENSOR,1789661157113,40887364496246,0.15373886,0.20548365,9.865309,-4.5814854E-4,-4.5814854E-4,1.5271618E-4,-49.725002,3.7500002,6.6000004,,,,,,,,,,,,,,,,,,
SENSOR,1789661157182,40887339496246,0.15463616,0.200698,9.871291,-4.5814854E-4,-4.5814854E-4,1.5271618E-4,-49.725002,3.7500002,6.6000004,,,,,,,,,,,,,,,,,,
SENSOR,1789661157182,40887359496246,0.16241284,0.19591236,9.87488,-4.5814854E-4,-4.5814854E-4,1.5271618E-4,-49.725002,3.7500002,6.6000004,,,,,,,,,,,,,,,,,,
SENSOR,1789661157182,40887379496246,0.15224335,0.2009971,9.858728,-4.5814854E-4,-4.5814854E-4,1.5271618E-4,-49.725002,3.7500002,6.6000004,,,,,,,,,,,,,,,,,,
SENSOR,1789661157182,40887399496246,0.15672988,0.20847467,9.869197,-4.5814854E-4,-4.5814854E-4,1.5271618E-4,-49.725002,3.7500002,6.6000004,,,,,,,,,,,,,,,,,,
SENSOR,1789661157182,40887419496246,0.15433706,0.2015953,9.869197,-4.5814854E-4,-4.5814854E-4,1.5271618E-4,-49.725002,3.7500002,6.6000004,,,,,,,,,,,,,,,,,,
SENSOR,1789661157182,40887439496246,0.15284155,0.2000998,9.862318,-4.5814854E-4,-4.5814854E-4,1.5271618E-4,-49.725002,3.7500002,6.6000004,,,,,,,,,,,,,,,,,,
SENSOR,1789661157200,40887454496246,0.15284155,0.2000998,9.862318,1.5271618E-4,-9.162971E-4,1.5271618E-4,-49.725002,3.7500002,6.6000004,,,,,,,,,,,,,,,,,,
SENSOR,1789661157216,40887464496246,0.15284155,0.2000998,9.862318,1.5271618E-4,-9.162971E-4,1.5271618E-4,-49.725002,4.05,8.025001,,,,,,,,,,,,,,,,,,
SENSOR,1789661157286,40887459496246,0.15583257,0.19740787,9.874282,1.5271618E-4,-9.162971E-4,1.5271618E-4,-49.725002,4.05,8.025001,,,,,,,,,,,,,,,,,,
SENSOR,1789661157286,40887479496246,0.1594218,0.19710876,9.855139,1.5271618E-4,-9.162971E-4,1.5271618E-4,-49.725002,4.05,8.025001,,,,,,,,,,,,,,,,,,
SENSOR,1789661157286,40887499496246,0.16121642,0.20338993,9.865009,1.5271618E-4,-9.162971E-4,1.5271618E-4,-49.725002,4.05,8.025001,,,,,,,,,,,,,,,,,,
SENSOR,1789661157286,40887519496246,0.15553348,0.20458634,9.862019,1.5271618E-4,-9.162971E-4,1.5271618E-4,-49.725002,4.05,8.025001,,,,,,,,,,,,,,,,,,
SENSOR,1789661157295,40887554496246,0.15553348,0.20458634,9.862019,0.0013744456,-1.5271618E-4,-4.5814854E-4,-49.725002,4.05,8.025001,,,,,,,,,,,,,,,,,,
SENSOR,1789661157312,40887564496246,0.15553348,0.20458634,9.862019,0.0013744456,-1.5271618E-4,-4.5814854E-4,-49.800003,3.825,7.5750003,,,,,,,,,,,,,,,,,,
SENSOR,1789661157383,40887539496246,0.15553348,0.20877378,9.863813,0.0013744456,-1.5271618E-4,-4.5814854E-4,-49.800003,3.825,7.5750003,,,,,,,,,,,,,,,,,,
SENSOR,1789661157383,40887559496246,0.1582254,0.2000998,9.867702,0.0013744456,-1.5271618E-4,-4.5814854E-4,-49.800003,3.825,7.5750003,,,,,,,,,,,,,,,,,,
SENSOR,1789661157383,40887579496246,0.15613168,0.21296121,9.869197,0.0013744456,-1.5271618E-4,-4.5814854E-4,-49.800003,3.825,7.5750003,,,,,,,,,,,,,,,,,,
SENSOR,1789661157383,40887599496246,0.15463616,0.20458634,9.85813,0.0013744456,-1.5271618E-4,-4.5814854E-4,-49.800003,3.825,7.5750003,,,,,,,,,,,,,,,,,,
SENSOR,1789661157383,40887619496246,0.16031912,0.19980069,9.875478,0.0013744456,-1.5271618E-4,-4.5814854E-4,-49.800003,3.825,7.5750003,,,,,,,,,,,,,,,,,,
SENSOR,1789661157383,40887639496246,0.15463616,0.20458634,9.868897,0.0013744456,-1.5271618E-4,-4.5814854E-4,-49.800003,3.825,7.5750003,,,,,,,,,,,,,,,,,,
SENSOR,1789661157400,40887654496246,0.15463616,0.20458634,9.868897,1.5271618E-4,3.0543236E-4,1.5271618E-4,-49.800003,3.825,7.5750003,,,,,,,,,,,,,,,,,,
SENSOR,1789661157415,40887664496246,0.15463616,0.20458634,9.868897,1.5271618E-4,3.0543236E-4,1.5271618E-4,-50.025,3.825,7.3500004,,,,,,,,,,,,,,,,,,
CELLULAR,1789661157477,,,,,,,,,,,,,,true,NR,4298047490,405,869,,75,403,634080,-109,NR_SS_RSRP,3,
SENSOR,1789661157503,40887659496246,0.15194423,0.20458634,9.861421,1.5271618E-4,3.0543236E-4,1.5271618E-4,-50.025,3.825,7.3500004,,,,,,,,,,,,,,,,,,
SENSOR,1789661157503,40887679496246,0.15732808,0.19501504,9.864411,1.5271618E-4,3.0543236E-4,1.5271618E-4,-50.025,3.825,7.3500004,,,,,,,,,,,,,,,,,,
SENSOR,1789661157503,40887699496246,0.15702899,0.20727827,9.880862,1.5271618E-4,3.0543236E-4,1.5271618E-4,-50.025,3.825,7.3500004,,,,,,,,,,,,,,,,,,
SENSOR,1789661157503,40887719496246,0.16031912,0.19890338,9.868897,1.5271618E-4,3.0543236E-4,1.5271618E-4,-50.025,3.825,7.3500004,,,,,,,,,,,,,,,,,,
SENSOR,1789661157503,40887739496246,0.1591227,0.21026929,9.863813,1.5271618E-4,3.0543236E-4,1.5271618E-4,-50.025,3.825,7.3500004,,,,,,,,,,,,,,,,,,
SENSOR,1789661157503,40887754496246,0.1591227,0.21026929,9.863813,1.5271618E-4,-4.5814854E-4,1.5271618E-4,-50.025,3.825,7.3500004,,,,,,,,,,,,,,,,,,
SENSOR,1789661157511,40887764496246,0.1591227,0.21026929,9.863813,1.5271618E-4,-4.5814854E-4,1.5271618E-4,-50.250004,3.6000001,7.8750005,,,,,,,,,,,,,,,,,,
SENSOR,1789661157586,40887759496246,0.15972091,0.20039889,9.862916,1.5271618E-4,-4.5814854E-4,1.5271618E-4,-50.250004,3.6000001,7.8750005,,,,,,,,,,,,,,,,,,
SENSOR,1789661157586,40887779496246,0.1582254,0.20608185,9.8682995,1.5271618E-4,-4.5814854E-4,1.5271618E-4,-50.250004,3.6000001,7.8750005,,,,,,,,,,,,,,,,,,
SENSOR,1789661157586,40887799496246,0.15613168,0.19710876,9.870094,1.5271618E-4,-4.5814854E-4,1.5271618E-4,-50.250004,3.6000001,7.8750005,,,,,,,,,,,,,,,,,,
SENSOR,1789661157586,40887819496246,0.15643078,0.20697916,9.864711,1.5271618E-4,-4.5814854E-4,1.5271618E-4,-50.250004,3.6000001,7.8750005,,,,,,,,,,,,,,,,,,
SENSOR,1789661157599,40887854496246,0.15643078,0.20697916,9.864711,1.5271618E-4,3.0543236E-4,-7.635809E-4,-50.250004,3.6000001,7.8750005,,,,,,,,,,,,,,,,,,
SENSOR,1789661157617,40887864496246,0.15643078,0.20697916,9.864711,1.5271618E-4,3.0543236E-4,-7.635809E-4,-50.100002,3.825,7.65,,,,,,,,,,,,,,,,,,
SENSOR,1789661157685,40887839496246,0.1591227,0.20697916,9.870692,1.5271618E-4,3.0543236E-4,-7.635809E-4,-50.100002,3.825,7.65,,,,,,,,,,,,,,,,,,
SENSOR,1789661157686,40887859496246,0.16091733,0.19740787,9.864711,1.5271618E-4,3.0543236E-4,-7.635809E-4,-50.100002,3.825,7.65,,,,,,,,,,,,,,,,,,
SENSOR,1789661157686,40887879496246,0.15882361,0.20398813,9.869496,1.5271618E-4,3.0543236E-4,-7.635809E-4,-50.100002,3.825,7.65,,,,,,,,,,,,,,,,,,
SENSOR,1789661157686,40887899496246,0.15343975,0.19950159,9.862318,1.5271618E-4,3.0543236E-4,-7.635809E-4,-50.100002,3.825,7.65,,,,,,,,,,,,,,,,,,
SENSOR,1789661157686,40887919496246,0.15074782,0.2114657,9.864411,1.5271618E-4,3.0543236E-4,-7.635809E-4,-50.100002,3.825,7.65,,,,,,,,,,,,,,,,,,
SENSOR,1789661157686,40887939496246,0.16121642,0.19441684,9.875478,1.5271618E-4,3.0543236E-4,-7.635809E-4,-50.100002,3.825,7.65,,,,,,,,,,,,,,,,,,
SENSOR,1789661157694,40887954496246,0.16121642,0.19441684,9.875478,4.5814854E-4,7.635809E-4,1.5271618E-4,-50.100002,3.825,7.65,,,,,,,,,,,,,,,,,,
SENSOR,1789661157711,40887964496246,0.16121642,0.19441684,9.875478,4.5814854E-4,7.635809E-4,1.5271618E-4,-50.025,3.7500002,7.5750003,,,,,,,,,,,,,,,,,,
SENSOR,1789661157785,40887959496246,0.15583257,0.19920248,9.84467,4.5814854E-4,7.635809E-4,1.5271618E-4,-50.025,3.7500002,7.5750003,,,,,,,,,,,,,,,,,,
SENSOR,1789661157785,40887979496246,0.15702899,0.20428723,9.868599,4.5814854E-4,7.635809E-4,1.5271618E-4,-50.025,3.7500002,7.5750003,,,,,,,,,,,,,,,,,,
SENSOR,1789661157785,40887999496246,0.15373886,0.2015953,9.864711,4.5814854E-4,7.635809E-4,1.5271618E-4,-50.025,3.7500002,7.5750003,,,,,,,,,,,,,,,,,,
SENSOR,1789661157786,40888019496246,0.15284155,0.20608185,9.862019,4.5814854E-4,7.635809E-4,1.5271618E-4,-50.025,3.7500002,7.5750003,,,,,,,,,,,,,,,,,,
SENSOR,1789661157798,40888054496246,0.15284155,0.20608185,9.862019,0.0010690133,3.0543236E-4,1.5271618E-4,-50.025,3.7500002,7.5750003,,,,,,,,,,,,,,,,,,
SENSOR,1789661157816,40888064496246,0.15284155,0.20608185,9.862019,0.0010690133,3.0543236E-4,1.5271618E-4,-50.175003,3.525,7.9500003,,,,,,,,,,,,,,,,,,
SENSOR,1789661157885,40888039496246,0.15792629,0.19651055,9.875478,0.0010690133,3.0543236E-4,1.5271618E-4,-50.175003,3.525,7.9500003,,,,,,,,,,,,,,,,,,
SENSOR,1789661157885,40888059496246,0.15613168,0.20638095,9.866804,0.0010690133,3.0543236E-4,1.5271618E-4,-50.175003,3.525,7.9500003,,,,,,,,,,,,,,,,,,
SENSOR,1789661157885,40888079496246,0.15373886,0.20967108,9.863514,0.0010690133,3.0543236E-4,1.5271618E-4,-50.175003,3.525,7.9500003,,,,,,,,,,,,,,,,,,
SENSOR,1789661157885,40888099496246,0.16390835,0.19591236,9.867402,0.0010690133,3.0543236E-4,1.5271618E-4,-50.175003,3.525,7.9500003,,,,,,,,,,,,,,,,,,
SENSOR,1789661157886,40888119496246,0.15672988,0.20817557,9.860822,0.0010690133,3.0543236E-4,1.5271618E-4,-50.175003,3.525,7.9500003,,,,,,,,,,,,,,,,,,
SENSOR,1789661157886,40888139496246,0.16061822,0.19830517,9.864711,0.0010690133,3.0543236E-4,1.5271618E-4,-50.175003,3.525,7.9500003,,,,,,,,,,,,,,,,,,
SENSOR,1789661157898,40888154496246,0.16061822,0.19830517,9.864711,1.5271618E-4,3.0543236E-4,1.5271618E-4,-50.175003,3.525,7.9500003,,,,,,,,,,,,,,,,,,
GNSS,1789661157910,,true,11.0553135,76.92707883,368.35595703125,3.7900925,0.0,,95,34,,,,,,,,,,,,,
SENSOR,1789661157924,40888164496246,0.16061822,0.19830517,9.864711,1.5271618E-4,3.0543236E-4,1.5271618E-4,-50.100002,3.7500002,8.175,,,,,,,,,,,,,,,,,,
GNSS,1789661158000,,true,11.05531371,76.92709283,370.744140625,3.7900925,0.0,,95,34,,,,,,,,,,,,,
SENSOR,1789661157986,40888159496246,0.16031912,0.20039889,9.869795,1.5271618E-4,3.0543236E-4,1.5271618E-4,-50.100002,3.7500002,8.175,,,,,,,,,,,,,,,,,,
SENSOR,1789661157986,40888179496246,0.15014961,0.20937198,9.845867,1.5271618E-4,3.0543236E-4,1.5271618E-4,-50.100002,3.7500002,8.175,,,,,,,,,,,,,,,,,,
SENSOR,1789661157986,40888199496246,0.15463616,0.20458634,9.880263,1.5271618E-4,3.0543236E-4,1.5271618E-4,-50.100002,3.7500002,8.175,,,,,,,,,,,,,,,,,,
SENSOR,1789661157986,40888219496246,0.15732808,0.19950159,9.866505,1.5271618E-4,3.0543236E-4,1.5271618E-4,-50.100002,3.7500002,8.175,,,,,,,,,,,,,,,,,,
SENSOR,1789661157997,40888254496246,0.15732808,0.19950159,9.866505,1.5271618E-4,-6.108647E-4,1.5271618E-4,-50.100002,3.7500002,8.175,,,,,,,,,,,,,,,,,,
SENSOR,1789661158015,40888264496246,0.15732808,0.19950159,9.866505,1.5271618E-4,-6.108647E-4,1.5271618E-4,-50.100002,3.825,8.1,,,,,,,,,,,,,,,,,,
SENSOR,1789661158084,40888239496246,0.15792629,0.20398813,9.868897,1.5271618E-4,-6.108647E-4,1.5271618E-4,-50.100002,3.825,8.1,,,,,,,,,,,,,,,,,,
SENSOR,1789661158084,40888259496246,0.16151553,0.19920248,9.864711,1.5271618E-4,-6.108647E-4,1.5271618E-4,-50.100002,3.825,8.1,,,,,,,,,,,,,,,,,,
SENSOR,1789661158084,40888279496246,0.15583257,0.20219351,9.8682995,1.5271618E-4,-6.108647E-4,1.5271618E-4,-50.100002,3.825,8.1,,,,,,,,,,,,,,,,,,
SENSOR,1789661158084,40888299496246,0.16211374,0.200698,9.866206,1.5271618E-4,-6.108647E-4,1.5271618E-4,-50.100002,3.825,8.1,,,,,,,,,,,,,,,,,,
SENSOR,1789661158084,40888319496246,0.15882361,0.20338993,9.861421,1.5271618E-4,-6.108647E-4,1.5271618E-4,-50.100002,3.825,8.1,,,,,,,,,,,,,,,,,,
SENSOR,1789661158084,40888339496246,0.15882361,0.2000998,9.8727865,1.5271618E-4,-6.108647E-4,1.5271618E-4,-50.100002,3.825,8.1,,,,,,,,,,,,,,,,,,
SENSOR,1789661158092,40888354496246,0.15882361,0.2000998,9.8727865,0.0010690133,3.0543236E-4,-0.0010690133,-50.100002,3.825,8.1,,,,,,,,,,,,,,,,,,
SENSOR,1789661158120,40888364496246,0.15882361,0.2000998,9.8727865,0.0010690133,3.0543236E-4,-0.0010690133,-49.500004,3.7500002,7.5000005,,,,,,,,,,,,,,,,,,
SENSOR,1789661158185,40888359496246,0.15792629,0.20668006,9.866505,0.0010690133,3.0543236E-4,-0.0010690133,-49.500004,3.7500002,7.5000005,,,,,,,,,,,,,,,,,,
SENSOR,1789661158185,40888379496246,0.15613168,0.20039889,9.867402,0.0010690133,3.0543236E-4,-0.0010690133,-49.500004,3.7500002,7.5000005,,,,,,,,,,,,,,,,,,
SENSOR,1789661158185,40888399496246,0.15613168,0.20039889,9.865608,0.0010690133,3.0543236E-4,-0.0010690133,-49.500004,3.7500002,7.5000005,,,,,,,,,,,,,,,,,,
SENSOR,1789661158186,40888419496246,0.15493527,0.20697916,9.870992,0.0010690133,3.0543236E-4,-0.0010690133,-49.500004,3.7500002,7.5000005,,,,,,,,,,,,,,,,,,
SENSOR,1789661158197,40888454496246,0.15493527,0.20697916,9.870992,1.5271618E-4,3.0543236E-4,1.5271618E-4,-49.500004,3.7500002,7.5000005,,,,,,,,,,,,,,,,,,
SENSOR,1789661158216,40888464496246,0.15493527,0.20697916,9.870992,1.5271618E-4,3.0543236E-4,1.5271618E-4,-49.65,4.125,8.625,,,,,,,,,,,,,,,,,,
SENSOR,1789661158284,40888439496246,0.15882361,0.20129621,9.865907,1.5271618E-4,3.0543236E-4,1.5271618E-4,-49.65,4.125,8.625,,,,,,,,,,,,,,,,,,
SENSOR,1789661158284,40888459496246,0.1582254,0.20817557,9.87159,1.5271618E-4,3.0543236E-4,1.5271618E-4,-49.65,4.125,8.625,,,,,,,,,,,,,,,,,,
SENSOR,1789661158284,40888479496246,0.15732808,0.19770697,9.865907,1.5271618E-4,3.0543236E-4,1.5271618E-4,-49.65,4.125,8.625,,,,,,,,,,,,,,,,,,
SENSOR,1789661158284,40888499496246,0.15882361,0.20398813,9.867402,1.5271618E-4,3.0543236E-4,1.5271618E-4,-49.65,4.125,8.625,,,,,,,,,,,,,,,,,,
SENSOR,1789661158284,40888519496246,0.15583257,0.20189442,9.862617,1.5271618E-4,3.0543236E-4,1.5271618E-4,-49.65,4.125,8.625,,,,,,,,,,,,,,,,,,
SENSOR,1789661158284,40888539496246,0.15672988,0.20249261,9.868001,1.5271618E-4,3.0543236E-4,1.5271618E-4,-49.65,4.125,8.625,,,,,,,,,,,,,,,,,,
SENSOR,1789661158293,40888554496246,0.15672988,0.20249261,9.868001,-1.5271618E-4,3.0543236E-4,1.5271618E-4,-49.65,4.125,8.625,,,,,,,,,,,,,,,,,,
SENSOR,1789661158319,40888564496246,0.15672988,0.20249261,9.868001,-1.5271618E-4,3.0543236E-4,1.5271618E-4,-50.4,3.825,8.25,,,,,,,,,,,,,,,,,,
SENSOR,1789661158389,40888559496246,0.15643078,0.20368902,9.8682995,-1.5271618E-4,3.0543236E-4,1.5271618E-4,-50.4,3.825,8.25,,,,,,,,,,,,,,,,,,
SENSOR,1789661158389,40888579496246,0.15314065,0.20727827,9.862916,-1.5271618E-4,3.0543236E-4,1.5271618E-4,-50.4,3.825,8.25,,,,,,,,,,,,,,,,,,
SENSOR,1789661158389,40888599496246,0.15972091,0.19830517,9.859626,-1.5271618E-4,3.0543236E-4,1.5271618E-4,-50.4,3.825,8.25,,,,,,,,,,,,,,,,,,
SENSOR,1789661158389,40888619496246,0.16121642,0.2114657,9.876375,-1.5271618E-4,3.0543236E-4,1.5271618E-4,-50.4,3.825,8.25,,,,,,,,,,,,,,,,,,
SENSOR,1789661158400,40888654496246,0.16121642,0.2114657,9.876375,1.5271618E-4,-6.108647E-4,-1.5271618E-4,-50.4,3.825,8.25,,,,,,,,,,,,,,,,,,
SENSOR,1789661158414,40888664496246,0.16121642,0.2114657,9.876375,1.5271618E-4,-6.108647E-4,-1.5271618E-4,-50.025,3.6000001,8.1,,,,,,,,,,,,,,,,,,
SENSOR,1789661158484,40888639496246,0.15672988,0.20039889,9.854242,1.5271618E-4,-6.108647E-4,-1.5271618E-4,-50.025,3.6000001,8.1,,,,,,,,,,,,,,,,,,
SENSOR,1789661158485,40888659496246,0.15732808,0.20458634,9.8682995,1.5271618E-4,-6.108647E-4,-1.5271618E-4,-50.025,3.6000001,8.1,,,,,,,,,,,,,,,,,,
SENSOR,1789661158485,40888679496246,0.1591227,0.19501504,9.863813,1.5271618E-4,-6.108647E-4,-1.5271618E-4,-50.025,3.6000001,8.1,,,,,,,,,,,,,,,,,,
SENSOR,1789661158485,40888699496246,0.15284155,0.20757736,9.871291,1.5271618E-4,-6.108647E-4,-1.5271618E-4,-50.025,3.6000001,8.1,,,,,,,,,,,,,,,,,,
SENSOR,1789661158485,40888719496246,0.15373886,0.200698,9.864711,1.5271618E-4,-6.108647E-4,-1.5271618E-4,-50.025,3.6000001,8.1,,,,,,,,,,,,,,,,,,
SENSOR,1789661158485,40888739496246,0.15702899,0.20338993,9.861121,1.5271618E-4,-6.108647E-4,-1.5271618E-4,-50.025,3.6000001,8.1,,,,,,,,,,,,,,,,,,
SENSOR,1789661158492,40888754496246,0.15702899,0.20338993,9.861121,1.5271618E-4,3.0543236E-4,1.5271618E-4,-50.025,3.6000001,8.1,,,,,,,,,,,,,,,,,,
CELLULAR,1789661158503,,,,,,,,,,,,,,true,NR,4298047490,405,869,,75,403,634080,-109,NR_SS_RSRP,3,
SENSOR,1789661158530,40888764496246,0.15702899,0.20338993,9.861121,1.5271618E-4,3.0543236E-4,1.5271618E-4,-50.025,3.825,8.400001,,,,,,,,,,,,,,,,,,
SENSOR,1789661158585,40888759496246,0.15792629,0.20548365,9.853643,1.5271618E-4,3.0543236E-4,1.5271618E-4,-50.025,3.825,8.400001,,,,,,,,,,,,,,,,,,
SENSOR,1789661158585,40888779496246,0.16121642,0.19980069,9.875179,1.5271618E-4,3.0543236E-4,1.5271618E-4,-50.025,3.825,8.400001,,,,,,,,,,,,,,,,,,
SENSOR,1789661158586,40888799496246,0.16031912,0.20249261,9.863813,1.5271618E-4,3.0543236E-4,1.5271618E-4,-50.025,3.825,8.400001,,,,,,,,,,,,,,,,,,
SENSOR,1789661158586,40888819496246,0.15583257,0.20338993,9.853943,1.5271618E-4,3.0543236E-4,1.5271618E-4,-50.025,3.825,8.400001,,,,,,,,,,,,,,,,,,
SENSOR,1789661158596,40888854496246,0.15583257,0.20338993,9.853943,-3.0543236E-4,-9.162971E-4,1.5271618E-4,-50.025,3.825,8.400001,,,,,,,,,,,,,,,,,,
SENSOR,1789661158615,40888864496246,0.15583257,0.20338993,9.853943,-3.0543236E-4,-9.162971E-4,1.5271618E-4,-50.025,3.6750002,7.8,,,,,,,,,,,,,,,,,,
SENSOR,1789661158686,40888839496246,0.15254244,0.19770697,9.860523,-3.0543236E-4,-9.162971E-4,1.5271618E-4,-50.025,3.6750002,7.8,,,,,,,,,,,,,,,,,,
SENSOR,1789661158686,40888859496246,0.16151553,0.2108675,9.894621,-3.0543236E-4,-9.162971E-4,1.5271618E-4,-50.025,3.6750002,7.8,,,,,,,,,,,,,,,,,,
SENSOR,1789661158686,40888879496246,0.15882361,0.19531415,9.866206,-3.0543236E-4,-9.162971E-4,1.5271618E-4,-50.025,3.6750002,7.8,,,,,,,,,,,,,,,,,,
SENSOR,1789661158686,40888899496246,0.16091733,0.20668006,9.873085,-3.0543236E-4,-9.162971E-4,1.5271618E-4,-50.025,3.6750002,7.8,,,,,,,,,,,,,,,,,,
SENSOR,1789661158686,40888919496246,0.16331014,0.2009971,9.84826,-3.0543236E-4,-9.162971E-4,1.5271618E-4,-50.025,3.6750002,7.8,,,,,,,,,,,,,,,,,,
SENSOR,1789661158686,40888939496246,0.15403795,0.21714866,9.870094,-3.0543236E-4,-9.162971E-4,1.5271618E-4,-50.025,3.6750002,7.8,,,,,,,,,,,,,,,,,,
SENSOR,1789661158692,40888954496246,0.15403795,0.21714866,9.870094,1.5271618E-4,3.0543236E-4,1.5271618E-4,-50.025,3.6750002,7.8,,,,,,,,,,,,,,,,,,
SENSOR,1789661158719,40888964496246,0.15403795,0.21714866,9.870094,1.5271618E-4,3.0543236E-4,1.5271618E-4,-50.025,3.9,8.400001,,,,,,,,,,,,,,,,,,
SENSOR,1789661158785,40888959496246,0.15672988,0.20219351,9.870394,1.5271618E-4,3.0543236E-4,1.5271618E-4,-50.025,3.9,8.400001,,,,,,,,,,,,,,,,,,
SENSOR,1789661158785,40888979496246,0.15613168,0.20368902,9.872188,1.5271618E-4,3.0543236E-4,1.5271618E-4,-50.025,3.9,8.400001,,,,,,,,,,,,,,,,,,
SENSOR,1789661158785,40888999496246,0.1582254,0.19890338,9.862617,1.5271618E-4,3.0543236E-4,1.5271618E-4,-50.025,3.9,8.400001,,,,,,,,,,,,,,,,,,
SENSOR,1789661158787,40889019496246,0.15792629,0.20787647,9.865907,1.5271618E-4,3.0543236E-4,1.5271618E-4,-50.025,3.9,8.400001,,,,,,,,,,,,,,,,,,
SENSOR,1789661158798,40889054496246,0.15792629,0.20787647,9.865907,1.5271618E-4,3.0543236E-4,1.5271618E-4,-50.025,3.9,8.400001,,,,,,,,,,,,,,,,,,
SENSOR,1789661158813,40889064496246,0.15792629,0.20787647,9.865907,1.5271618E-4,3.0543236E-4,1.5271618E-4,-49.725002,3.6750002,7.8,,,,,,,,,,,,,,,,,,
SENSOR,1789661158886,40889039496246,0.15702899,0.20039889,9.865907,1.5271618E-4,3.0543236E-4,1.5271618E-4,-49.725002,3.6750002,7.8,,,,,,,,,,,,,,,,,,
SENSOR,1789661158887,40889059496246,0.1591227,0.2015953,9.867104,1.5271618E-4,3.0543236E-4,1.5271618E-4,-49.725002,3.6750002,7.8,,,,,,,,,,,,,,,,,,
SENSOR,1789661158887,40889079496246,0.15702899,0.2009971,9.868001,1.5271618E-4,3.0543236E-4,1.5271618E-4,-49.725002,3.6750002,7.8,,,,,,,,,,,,,,,,,,
SENSOR,1789661158887,40889099496246,0.15523437,0.20578274,9.8632145,1.5271618E-4,3.0543236E-4,1.5271618E-4,-49.725002,3.6750002,7.8,,,,,,,,,,,,,,,,,,
SENSOR,1789661158887,40889119496246,0.15643078,0.20458634,9.8727865,1.5271618E-4,3.0543236E-4,1.5271618E-4,-49.725002,3.6750002,7.8,,,,,,,,,,,,,,,,,,
SENSOR,1789661158887,40889139496246,0.1594218,0.21026929,9.867104,1.5271618E-4,3.0543236E-4,1.5271618E-4,-49.725002,3.6750002,7.8,,,,,,,,,,,,,,,,,,
SENSOR,1789661158894,40889154496246,0.1594218,0.21026929,9.867104,1.5271618E-4,-9.162971E-4,1.5271618E-4,-49.725002,3.6750002,7.8,,,,,,,,,,,,,,,,,,
GNSS,1789661158911,,true,11.05531371,76.92709283,370.744140625,3.7900925,0.0,,95,36,,,,,,,,,,,,,
SENSOR,1789661158929,40889164496246,0.1594218,0.21026929,9.867104,1.5271618E-4,-9.162971E-4,1.5271618E-4,-49.2,3.9750001,7.7250004,,,,,,,,,,,,,,,,,,
GNSS,1789661159000,,true,11.05531164,76.92709503,372.92919921875,3.7900925,0.0,,95,36,,,,,,,,,,,,,
SENSOR,1789661158986,40889159496246,0.15972091,0.20488544,9.884152,1.5271618E-4,-9.162971E-4,1.5271618E-4,-49.2,3.9750001,7.7250004,,,,,,,,,,,,,,,,,,
SENSOR,1789661158986,40889179496246,0.16031912,0.20548365,9.856036,1.5271618E-4,-9.162971E-4,1.5271618E-4,-49.2,3.9750001,7.7250004,,,,,,,,,,,,,,,,,,
SENSOR,1789661158986,40889199496246,0.15672988,0.19920248,9.860224,1.5271618E-4,-9.162971E-4,1.5271618E-4,-49.2,3.9750001,7.7250004,,,,,,,,,,,,,,,,,,
SENSOR,1789661158986,40889219496246,0.16002001,0.19770697,9.864112,1.5271618E-4,-9.162971E-4,1.5271618E-4,-49.2,3.9750001,7.7250004,,,,,,,,,,,,,,,,,,
SENSOR,1789661158996,40889254496246,0.16002001,0.19770697,9.864112,-6.108647E-4,3.0543236E-4,1.5271618E-4,-49.2,3.9750001,7.7250004,,,,,,,,,,,,,,,,,,
SENSOR,1789661159013,40889264496246,0.16002001,0.19770697,9.864112,-6.108647E-4,3.0543236E-4,1.5271618E-4,-50.325,3.7500002,7.9500003,,,,,,,,,,,,,,,,,,
SENSOR,1789661159082,40889239496246,0.15553348,0.20638095,9.864711,-6.108647E-4,3.0543236E-4,1.5271618E-4,-50.325,3.7500002,7.9500003,,,,,,,,,,,,,,,,,,
SENSOR,1789661159083,40889259496246,0.16091733,0.20787647,9.873684,-6.108647E-4,3.0543236E-4,1.5271618E-4,-50.325,3.7500002,7.9500003,,,,,,,,,,,,,,,,,,
SENSOR,1789661159083,40889279496246,0.16121642,0.20488544,9.876974,-6.108647E-4,3.0543236E-4,1.5271618E-4,-50.325,3.7500002,7.9500003,,,,,,,,,,,,,,,,,,
SENSOR,1789661159083,40889299496246,0.15314065,0.2114657,9.860822,-6.108647E-4,3.0543236E-4,1.5271618E-4,-50.325,3.7500002,7.9500003,,,,,,,,,,,,,,,,,,
SENSOR,1789661159083,40889319496246,0.1594218,0.19411774,9.864411,-6.108647E-4,3.0543236E-4,1.5271618E-4,-50.325,3.7500002,7.9500003,,,,,,,,,,,,,,,,,,
SENSOR,1789661159083,40889339496246,0.15702899,0.19411774,9.850952,-6.108647E-4,3.0543236E-4,1.5271618E-4,-50.325,3.7500002,7.9500003,,,,,,,,,,,,,,,,,,
SENSOR,1789661159091,40889354496246,0.15702899,0.19411774,9.850952,1.5271618E-4,-9.162971E-4,1.5271618E-4,-50.325,3.7500002,7.9500003,,,,,,,,,,,,,,,,,,
SENSOR,1789661159118,40889364496246,0.15702899,0.19411774,9.850952,1.5271618E-4,-9.162971E-4,1.5271618E-4,-50.025,4.2000003,7.65,,,,,,,,,,,,,,,,,,
SENSOR,1789661159185,40889359496246,0.15972091,0.18723837,9.870094,1.5271618E-4,-9.162971E-4,1.5271618E-4,-50.025,4.2000003,7.65,,,,,,,,,,,,,,,,,,
SENSOR,1789661159185,40889379496246,0.15882361,0.2105684,9.875777,1.5271618E-4,-9.162971E-4,1.5271618E-4,-50.025,4.2000003,7.65,,,,,,,,,,,,,,,,,,
SENSOR,1789661159185,40889399496246,0.15314065,0.20967108,9.865608,1.5271618E-4,-9.162971E-4,1.5271618E-4,-50.025,4.2000003,7.65,,,,,,,,,,,,,,,,,,
SENSOR,1789661159186,40889419496246,0.15613168,0.19351953,9.849755,1.5271618E-4,-9.162971E-4,1.5271618E-4,-50.025,4.2000003,7.65,,,,,,,,,,,,,,,,,,
SENSOR,1789661159195,40889454496246,0.15613168,0.19351953,9.849755,1.5271618E-4,-9.162971E-4,1.5271618E-4,-50.025,4.2000003,7.65,,,,,,,,,,,,,,,,,,
SENSOR,1789661159213,40889464496246,0.15613168,0.19351953,9.849755,1.5271618E-4,-9.162971E-4,1.5271618E-4,-49.500004,3.7500002,7.2000003,,,,,,,,,,,,,,,,,,
SENSOR,1789661159283,40889439496246,0.1585245,0.21296121,9.875179,1.5271618E-4,-9.162971E-4,1.5271618E-4,-49.500004,3.7500002,7.2000003,,,,,,,,,,,,,,,,,,
SENSOR,1789661159283,40889459496246,0.15643078,0.20279172,9.866206,1.5271618E-4,-9.162971E-4,1.5271618E-4,-49.500004,3.7500002,7.2000003,,,,,,,,,,,,,,,,,,
SENSOR,1789661159283,40889479496246,0.15732808,0.20937198,9.867702,1.5271618E-4,-9.162971E-4,1.5271618E-4,-49.500004,3.7500002,7.2000003,,,,,,,,,,,,,,,,,,
SENSOR,1789661159283,40889499496246,0.16031912,0.20039889,9.853345,1.5271618E-4,-9.162971E-4,1.5271618E-4,-49.500004,3.7500002,7.2000003,,,,,,,,,,,,,,,,,,
SENSOR,1789661159284,40889519496246,0.16091733,0.20608185,9.866206,1.5271618E-4,-9.162971E-4,1.5271618E-4,-49.500004,3.7500002,7.2000003,,,,,,,,,,,,,,,,,,
SENSOR,1789661159284,40889539496246,0.1594218,0.19830517,9.865608,1.5271618E-4,-9.162971E-4,1.5271618E-4,-49.500004,3.7500002,7.2000003,,,,,,,,,,,,,,,,,,
SENSOR,1789661159291,40889554496246,0.1594218,0.19830517,9.865608,1.5271618E-4,3.0543236E-4,1.5271618E-4,-49.500004,3.7500002,7.2000003,,,,,,,,,,,,,,,,,,
SENSOR,1789661159317,40889564496246,0.1594218,0.19830517,9.865608,1.5271618E-4,3.0543236E-4,1.5271618E-4,-48.9,3.825,6.2250004,,,,,,,,,,,,,,,,,,
SENSOR,1789661159385,40889559496246,0.1576272,0.20578274,9.8682995,1.5271618E-4,3.0543236E-4,1.5271618E-4,-48.9,3.825,6.2250004,,,,,,,,,,,,,,,,,,
SENSOR,1789661159385,40889579496246,0.15254244,0.20398813,9.866505,1.5271618E-4,3.0543236E-4,1.5271618E-4,-48.9,3.825,6.2250004,,,,,,,,,,,,,,,,,,
SENSOR,1789661159385,40889599496246,0.15882361,0.20428723,9.861719,1.5271618E-4,3.0543236E-4,1.5271618E-4,-48.9,3.825,6.2250004,,,,,,,,,,,,,,,,,,
SENSOR,1789661159385,40889619496246,0.15972091,0.20428723,9.863813,1.5271618E-4,3.0543236E-4,1.5271618E-4,-48.9,3.825,6.2250004,,,,,,,,,,,,,,,,,,
SENSOR,1789661159397,40889654496246,0.15972091,0.20428723,9.863813,1.5271618E-4,3.0543236E-4,-3.0543236E-4,-48.9,3.825,6.2250004,,,,,,,,,,,,,,,,,,
SENSOR,1789661159413,40889664496246,0.15972091,0.20428723,9.863813,1.5271618E-4,3.0543236E-4,-3.0543236E-4,-48.9,3.825,6.675,,,,,,,,,,,,,,,,,,
SENSOR,1789661159481,40889639496246,0.15732808,0.20249261,9.870394,1.5271618E-4,3.0543236E-4,-3.0543236E-4,-48.9,3.825,6.675,,,,,,,,,,,,,,,,,,
SENSOR,1789661159482,40889659496246,0.1576272,0.20727827,9.873085,1.5271618E-4,3.0543236E-4,-3.0543236E-4,-48.9,3.825,6.675,,,,,,,,,,,,,,,,,,
SENSOR,1789661159482,40889679496246,0.15403795,0.20129621,9.865309,1.5271618E-4,3.0543236E-4,-3.0543236E-4,-48.9,3.825,6.675,,,,,,,,,,,,,,,,,,
SENSOR,1789661159482,40889699496246,0.15553348,0.20279172,9.865009,1.5271618E-4,3.0543236E-4,-3.0543236E-4,-48.9,3.825,6.675,,,,,,,,,,,,,,,,,,
SENSOR,1789661159482,40889719496246,0.15972091,0.19890338,9.868001,1.5271618E-4,3.0543236E-4,-3.0543236E-4,-48.9,3.825,6.675,,,,,,,,,,,,,,,,,,
SENSOR,1789661159482,40889739496246,0.15672988,0.20428723,9.860523,1.5271618E-4,3.0543236E-4,-3.0543236E-4,-48.9,3.825,6.675,,,,,,,,,,,,,,,,,,
SENSOR,1789661159499,40889754496246,0.15672988,0.20428723,9.860523,1.5271618E-4,3.0543236E-4,-0.0010690133,-48.9,3.825,6.675,,,,,,,,,,,,,,,,,,
SENSOR,1789661159517,40889764496246,0.15672988,0.20428723,9.860523,1.5271618E-4,3.0543236E-4,-0.0010690133,-49.95,3.825,7.8750005,,,,,,,,,,,,,,,,,,
CELLULAR,1789661159530,,,,,,,,,,,,,,true,NR,4298047490,405,869,,75,403,634080,-109,NR_SS_RSRP,3,
SENSOR,1789661159584,40889759496246,0.15613168,0.20219351,9.875179,1.5271618E-4,3.0543236E-4,-0.0010690133,-49.95,3.825,7.8750005,,,,,,,,,,,,,,,,,,
SENSOR,1789661159585,40889779496246,0.15732808,0.19800608,9.861121,1.5271618E-4,3.0543236E-4,-0.0010690133,-49.95,3.825,7.8750005,,,,,,,,,,,,,,,,,,
SENSOR,1789661159585,40889799496246,0.16031912,0.20668006,9.868001,1.5271618E-4,3.0543236E-4,-0.0010690133,-49.95,3.825,7.8750005,,,,,,,,,,,,,,,,,,
SENSOR,1789661159585,40889819496246,0.16002001,0.19860429,9.8682995,1.5271618E-4,3.0543236E-4,-0.0010690133,-49.95,3.825,7.8750005,,,,,,,,,,,,,,,,,,
SENSOR,1789661159595,40889854496246,0.16002001,0.19860429,9.8682995,1.5271618E-4,-9.162971E-4,1.5271618E-4,-49.95,3.825,7.8750005,,,,,,,,,,,,,,,,,,
SENSOR,1789661159612,40889864496246,0.16002001,0.19860429,9.8682995,1.5271618E-4,-9.162971E-4,1.5271618E-4,-49.425003,3.6000001,6.7500005,,,,,,,,,,,,,,,,,,
SENSOR,1789661159681,40889839496246,0.15792629,0.20847467,9.8524475,1.5271618E-4,-9.162971E-4,1.5271618E-4,-49.425003,3.6000001,6.7500005,,,,,,,,,,,,,,,,,,
SENSOR,1789661159681,40889859496246,0.16091733,0.20548365,9.868001,1.5271618E-4,-9.162971E-4,1.5271618E-4,-49.425003,3.6000001,6.7500005,,,,,,,,,,,,,,,,,,
SENSOR,1789661159682,40889879496246,0.16002001,0.20488544,9.882657,1.5271618E-4,-9.162971E-4,1.5271618E-4,-49.425003,3.6000001,6.7500005,,,,,,,,,,,,,,,,,,
SENSOR,1789661159682,40889899496246,0.15672988,0.20608185,9.859626,1.5271618E-4,-9.162971E-4,1.5271618E-4,-49.425003,3.6000001,6.7500005,,,,,,,,,,,,,,,,,,
SENSOR,1789661159682,40889919496246,0.15702899,0.20039889,9.859626,1.5271618E-4,-9.162971E-4,1.5271618E-4,-49.425003,3.6000001,6.7500005,,,,,,,,,,,,,,,,,,
SENSOR,1789661159682,40889939496246,0.15643078,0.20338993,9.866505,1.5271618E-4,-9.162971E-4,1.5271618E-4,-49.425003,3.6000001,6.7500005,,,,,,,,,,,,,,,,,,
SENSOR,1789661159699,40889954496246,0.15643078,0.20338993,9.866505,1.5271618E-4,3.0543236E-4,1.5271618E-4,-49.425003,3.6000001,6.7500005,,,,,,,,,,,,,,,,,,
SENSOR,1789661159716,40889964496246,0.15643078,0.20338993,9.866505,1.5271618E-4,3.0543236E-4,1.5271618E-4,-49.500004,3.9750001,6.9750004,,,,,,,,,,,,,,,,,,
SENSOR,1789661159785,40889959496246,0.1576272,0.19740787,9.860523,1.5271618E-4,3.0543236E-4,1.5271618E-4,-49.500004,3.9750001,6.9750004,,,,,,,,,,,,,,,,,,
SENSOR,1789661159785,40889979496246,0.15553348,0.20398813,9.862019,1.5271618E-4,3.0543236E-4,1.5271618E-4,-49.500004,3.9750001,6.9750004,,,,,,,,,,,,,,,,,,
SENSOR,1789661159785,40889999496246,0.15702899,0.20727827,9.876974,1.5271618E-4,3.0543236E-4,1.5271618E-4,-49.500004,3.9750001,6.9750004,,,,,,,,,,,,,,,,,,
SENSOR,1789661159785,40890019496246,0.15433706,0.21475583,9.869496,1.5271618E-4,3.0543236E-4,1.5271618E-4,-49.500004,3.9750001,6.9750004,,,,,,,,,,,,,,,,,,
SENSOR,1789661159794,40890054496246,0.15433706,0.21475583,9.869496,1.5271618E-4,3.0543236E-4,1.5271618E-4,-49.500004,3.9750001,6.9750004,,,,,,,,,,,,,,,,,,
SENSOR,1789661159811,40890064496246,0.15433706,0.21475583,9.869496,1.5271618E-4,3.0543236E-4,1.5271618E-4,-49.800003,4.2000003,7.5000005,,,,,,,,,,,,,,,,,,
SENSOR,1789661159881,40890039496246,0.1585245,0.2000998,9.865009,1.5271618E-4,3.0543236E-4,1.5271618E-4,-49.800003,4.2000003,7.5000005,,,,,,,,,,,,,,,,,,
SENSOR,1789661159881,40890059496246,0.16121642,0.20847467,9.862019,1.5271618E-4,3.0543236E-4,1.5271618E-4,-49.800003,4.2000003,7.5000005,,,,,,,,,,,,,,,,,,
SENSOR,1789661159881,40890079496246,0.15224335,0.20219351,9.85813,1.5271618E-4,3.0543236E-4,1.5271618E-4,-49.800003,4.2000003,7.5000005,,,,,,,,,,,,,,,,,,
SENSOR,1789661159881,40890099496246,0.15792629,0.2000998,9.869795,1.5271618E-4,3.0543236E-4,1.5271618E-4,-49.800003,4.2000003,7.5000005,,,,,,,,,,,,,,,,,,
SENSOR,1789661159881,40890119496246,0.15613168,0.20787647,9.864112,1.5271618E-4,3.0543236E-4,1.5271618E-4,-49.800003,4.2000003,7.5000005,,,,,,,,,,,,,,,,,,
SENSOR,1789661159881,40890139496246,0.15523437,0.19890338,9.860523,1.5271618E-4,3.0543236E-4,1.5271618E-4,-49.800003,4.2000003,7.5000005,,,,,,,,,,,,,,,,,,
SENSOR,1789661159902,40890154496246,0.15523437,0.19890338,9.860523,1.5271618E-4,-7.635809E-4,1.5271618E-4,-49.800003,4.2000003,7.5000005,,,,,,,,,,,,,,,,,,
GNSS,1789661159907,,true,11.05531164,76.92709503,372.92919921875,3.7900925,0.0,,95,40,,,,,,,,,,,,,
SENSOR,1789661159920,40890164496246,0.15523437,0.19890338,9.860523,1.5271618E-4,-7.635809E-4,1.5271618E-4,-48.9,4.275,6.0750003,,,,,,,,,,,,,,,,,,
GNSS,1789661160000,,true,11.05531246,76.92709741,372.285888671875,3.7900925,0.0,,95,40,,,,,,,,,,,,,
SENSOR,1789661159985,40890159496246,0.15792629,0.21385853,9.878768,1.5271618E-4,-7.635809E-4,1.5271618E-4,-48.9,4.275,6.0750003,,,,,,,,,,,,,,,,,,
SENSOR,1789661159985,40890179496246,0.15972091,0.20368902,9.869197,1.5271618E-4,-7.635809E-4,1.5271618E-4,-48.9,4.275,6.0750003,,,,,,,,,,,,,,,,,,
SENSOR,1789661159986,40890199496246,0.15583257,0.20458634,9.859626,1.5271618E-4,-7.635809E-4,1.5271618E-4,-48.9,4.275,6.0750003,,,,,,,,,,,,,,,,,,
SENSOR,1789661159986,40890219496246,0.1591227,0.20458634,9.873684,1.5271618E-4,-7.635809E-4,1.5271618E-4,-48.9,4.275,6.0750003,,,,,,,,,,,,,,,,,,
SENSOR,1789661159994,40890254496246,0.1591227,0.20458634,9.873684,-3.0543236E-4,3.0543236E-4,1.5271618E-4,-48.9,4.275,6.0750003,,,,,,,,,,,,,,,,,,
SENSOR,1789661160012,40890264496246,0.1591227,0.20458634,9.873684,-3.0543236E-4,3.0543236E-4,1.5271618E-4,-48.750004,3.3000002,6.15,,,,,,,,,,,,,,,,,,
SENSOR,1789661160085,40890239496246,0.15493527,0.20398813,9.85484,-3.0543236E-4,3.0543236E-4,1.5271618E-4,-48.750004,3.3000002,6.15,,,,,,,,,,,,,,,,,,
SENSOR,1789661160085,40890259496246,0.16151553,0.2015953,9.867104,-3.0543236E-4,3.0543236E-4,1.5271618E-4,-48.750004,3.3000002,6.15,,,,,,,,,,,,,,,,,,
SENSOR,1789661160085,40890279496246,0.15314065,0.20309082,9.860822,-3.0543236E-4,3.0543236E-4,1.5271618E-4,-48.750004,3.3000002,6.15,,,,,,,,,,,,,,,,,,
SENSOR,1789661160085,40890299496246,0.1585245,0.20638095,9.868897,-3.0543236E-4,3.0543236E-4,1.5271618E-4,-48.750004,3.3000002,6.15,,,,,,,,,,,,,,,,,,
SENSOR,1789661160085,40890319496246,0.1585245,0.20368902,9.866804,-3.0543236E-4,3.0543236E-4,1.5271618E-4,-48.750004,3.3000002,6.15,,,,,,,,,,,,,,,,,,
SENSOR,1789661160098,40890354496246,0.1585245,0.20368902,9.866804,1.5271618E-4,3.0543236E-4,-0.0010690133,-48.750004,3.3000002,6.15,,,,,,,,,,,,,,,,,,
SENSOR,1789661160115,40890364496246,0.1585245,0.20368902,9.866804,1.5271618E-4,3.0543236E-4,-0.0010690133,-49.125004,3.9,5.925,,,,,,,,,,,,,,,,,,
SENSOR,1789661160185,40890339496246,0.16301104,0.20578274,9.87159,1.5271618E-4,3.0543236E-4,-0.0010690133,-49.125004,3.9,5.925,,,,,,,,,,,,,,,,,,
SENSOR,1789661160185,40890359496246,0.15343975,0.21296121,9.870094,1.5271618E-4,3.0543236E-4,-0.0010690133,-49.125004,3.9,5.925,,,,,,,,,,,,,,,,,,
SENSOR,1789661160185,40890379496246,0.15732808,0.20129621,9.850353,1.5271618E-4,3.0543236E-4,-0.0010690133,-49.125004,3.9,5.925,,,,,,,,,,,,,,,,,,
SENSOR,1789661160185,40890399496246,0.15403795,0.20578274,9.8682995,1.5271618E-4,3.0543236E-4,-0.0010690133,-49.125004,3.9,5.925,,,,,,,,,,,,,,,,,,
SENSOR,1789661160185,40890419496246,0.1594218,0.19651055,9.861121,1.5271618E-4,3.0543236E-4,-0.0010690133,-49.125004,3.9,5.925,,,,,,,,,,,,,,,,,,
SENSOR,1789661160185,40890439496246,0.1591227,0.19980069,9.876675,1.5271618E-4,3.0543236E-4,-0.0010690133,-49.125004,3.9,5.925,,,,,,,,,,,,,,,,,,
SENSOR,1789661160194,40890454496246,0.1591227,0.19980069,9.876675,1.5271618E-4,-1.5271618E-4,1.5271618E-4,-49.125004,3.9,5.925,,,,,,,,,,,,,,,,,,
SENSOR,1789661160210,40890464496246,0.1591227,0.19980069,9.876675,1.5271618E-4,-1.5271618E-4,1.5271618E-4,-48.225002,3.7500002,5.25,,,,,,,,,,,,,,,,,,
SENSOR,1789661160285,40890459496246,0.15882361,0.2009971,9.849755,1.5271618E-4,-1.5271618E-4,1.5271618E-4,-48.225002,3.7500002,5.25,,,,,,,,,,,,,,,,,,
SENSOR,1789661160286,40890479496246,0.1582254,0.20518455,9.867104,1.5271618E-4,-1.5271618E-4,1.5271618E-4,-48.225002,3.7500002,5.25,,,,,,,,,,,,,,,,,,
SENSOR,1789661160286,40890499496246,0.15643078,0.19591236,9.867402,1.5271618E-4,-1.5271618E-4,1.5271618E-4,-48.225002,3.7500002,5.25,,,,,,,,,,,,,,,,,,
SENSOR,1789661160286,40890519496246,0.1585245,0.20368902,9.863813,1.5271618E-4,-1.5271618E-4,1.5271618E-4,-48.225002,3.7500002,5.25,,,,,,,,,,,,,,,,,,
SENSOR,1789661160297,40890554496246,0.1585245,0.20368902,9.863813,1.5271618E-4,-9.162971E-4,1.5271618E-4,-48.225002,3.7500002,5.25,,,,,,,,,,,,,,,,,,
SENSOR,1789661160315,40890564496246,0.1585245,0.20368902,9.863813,1.5271618E-4,-9.162971E-4,1.5271618E-4,-50.250004,3.2250001,7.1250005,,,,,,,,,,,,,,,,,,
SENSOR,1789661160385,40890539496246,0.1576272,0.19740787,9.861121,1.5271618E-4,-9.162971E-4,1.5271618E-4,-50.250004,3.2250001,7.1250005,,,,,,,,,,,,,,,,,,
SENSOR,1789661160385,40890559496246,0.16121642,0.20309082,9.870094,1.5271618E-4,-9.162971E-4,1.5271618E-4,-50.250004,3.2250001,7.1250005,,,,,,,,,,,,,,,,,,
SENSOR,1789661160385,40890579496246,0.16091733,0.20608185,9.865907,1.5271618E-4,-9.162971E-4,1.5271618E-4,-50.250004,3.2250001,7.1250005,,,,,,,,,,,,,,,,,,
SENSOR,1789661160385,40890599496246,0.15583257,0.20518455,9.866505,1.5271618E-4,-9.162971E-4,1.5271618E-4,-50.250004,3.2250001,7.1250005,,,,,,,,,,,,,,,,,,
SENSOR,1789661160386,40890619496246,0.15493527,0.20309082,9.8632145,1.5271618E-4,-9.162971E-4,1.5271618E-4,-50.250004,3.2250001,7.1250005,,,,,,,,,,,,,,,,,,
SENSOR,1789661160386,40890639496246,0.15882361,0.20309082,9.865608,1.5271618E-4,-9.162971E-4,1.5271618E-4,-50.250004,3.2250001,7.1250005,,,,,,,,,,,,,,,,,,
SENSOR,1789661160394,40890654496246,0.15882361,0.20309082,9.865608,-7.635809E-4,0.0015271618,-1.5271618E-4,-50.250004,3.2250001,7.1250005,,,,,,,,,,,,,,,,,,
SENSOR,1789661160424,40890664496246,0.15882361,0.20309082,9.865608,-7.635809E-4,0.0015271618,-1.5271618E-4,-49.425003,3.7500002,7.7250004,,,,,,,,,,,,,,,,,,
SENSOR,1789661160484,40890659496246,0.1594218,0.20189442,9.872188,-7.635809E-4,0.0015271618,-1.5271618E-4,-49.425003,3.7500002,7.7250004,,,,,,,,,,,,,,,,,,
SENSOR,1789661160484,40890679496246,0.1576272,0.21026929,9.864112,-7.635809E-4,0.0015271618,-1.5271618E-4,-49.425003,3.7500002,7.7250004,,,,,,,,,,,,,,,,,,
SENSOR,1789661160484,40890699496246,0.1594218,0.19501504,9.862019,-7.635809E-4,0.0015271618,-1.5271618E-4,-49.425003,3.7500002,7.7250004,,,,,,,,,,,,,,,,,,
SENSOR,1789661160485,40890719496246,0.15702899,0.20668006,9.866804,-7.635809E-4,0.0015271618,-1.5271618E-4,-49.425003,3.7500002,7.7250004,,,,,,,,,,,,,,,,,,
SENSOR,1789661160497,40890754496246,0.15702899,0.20668006,9.866804,1.5271618E-4,6.108647E-4,1.5271618E-4,-49.425003,3.7500002,7.7250004,,,,,,,,,,,,,,,,,,
SENSOR,1789661160515,40890764496246,0.15702899,0.20668006,9.866804,1.5271618E-4,6.108647E-4,1.5271618E-4,-49.350002,3.9,6.525,,,,,,,,,,,,,,,,,,
CELLULAR,1789661160550,,,,,,,,,,,,,,true,NR,4298047490,405,869,,75,403,634080,-109,NR_SS_RSRP,3,
SENSOR,1789661160584,40890739496246,0.16540386,0.2114657,9.872487,1.5271618E-4,6.108647E-4,1.5271618E-4,-49.350002,3.9,6.525,,,,,,,,,,,,,,,,,,
SENSOR,1789661160584,40890759496246,0.1576272,0.20279172,9.862019,1.5271618E-4,6.108647E-4,1.5271618E-4,-49.350002,3.9,6.525,,,,,,,,,,,,,,,,,,
SENSOR,1789661160584,40890779496246,0.15672988,0.19890338,9.870692,1.5271618E-4,6.108647E-4,1.5271618E-4,-49.350002,3.9,6.525,,,,,,,,,,,,,,,,,,
SENSOR,1789661160584,40890799496246,0.15643078,0.20368902,9.865907,1.5271618E-4,6.108647E-4,1.5271618E-4,-49.350002,3.9,6.525,,,,,,,,,,,,,,,,,,
SENSOR,1789661160584,40890819496246,0.15643078,0.20249261,9.864112,1.5271618E-4,6.108647E-4,1.5271618E-4,-49.350002,3.9,6.525,,,,,,,,,,,,,,,,,,
SENSOR,1789661160584,40890839496246,0.15613168,0.19890338,9.864711,1.5271618E-4,6.108647E-4,1.5271618E-4,-49.350002,3.9,6.525,,,,,,,,,,,,,,,,,,
SENSOR,1789661160592,40890854496246,0.15613168,0.19890338,9.864711,1.5271618E-4,3.0543236E-4,1.5271618E-4,-49.350002,3.9,6.525,,,,,,,,,,,,,,,,,,
SENSOR,1789661160620,40890864496246,0.15613168,0.19890338,9.864711,1.5271618E-4,3.0543236E-4,1.5271618E-4,-49.800003,3.525,7.05,,,,,,,,,,,,,,,,,,
SENSOR,1789661160685,40890859496246,0.16002001,0.2117648,9.869795,1.5271618E-4,3.0543236E-4,1.5271618E-4,-49.800003,3.525,7.05,,,,,,,,,,,,,,,,,,
SENSOR,1789661160686,40890879496246,0.15314065,0.19770697,9.866505,1.5271618E-4,3.0543236E-4,1.5271618E-4,-49.800003,3.525,7.05,,,,,,,,,,,,,,,,,,
SENSOR,1789661160686,40890899496246,0.15672988,0.20847467,9.868897,1.5271618E-4,3.0543236E-4,1.5271618E-4,-49.800003,3.525,7.05,,,,,,,,,,,,,,,,,,
SENSOR,1789661160686,40890919496246,0.15702899,0.19830517,9.865309,1.5271618E-4,3.0543236E-4,1.5271618E-4,-49.800003,3.525,7.05,,,,,,,,,,,,,,,,,,
SENSOR,1789661160697,40890954496246,0.15702899,0.19830517,9.865309,1.5271618E-4,3.0543236E-4,1.5271618E-4,-49.800003,3.525,7.05,,,,,,,,,,,,,,,,,,
SENSOR,1789661160715,40890964496246,0.15702899,0.19830517,9.865309,1.5271618E-4,3.0543236E-4,1.5271618E-4,-49.875004,3.9,6.9,,,,,,,,,,,,,,,,,,
