stream_type,timestamp_ms,sensor_nanos,accel_x,accel_y,accel_z,gyro_x,gyro_y,gyro_z,mag_x,mag_y,mag_z,has_fix,latitude,longitude,altitude,accuracy,speed,bearing,sats_view,sats_used,registered,cell_type,cell_id,mcc,mnc,lac,tac,pci,arfcn,signal_dbm,signal_metric,signal_level,operator
SENSOR,1789661118741,40848979496259,0.15403795,0.2009971,9.863813,,,,,,,,,,,,,,,,,,,,,,,,
SENSOR,1789661118747,40849004496259,0.15403795,0.2009971,9.863813,0.0,3.0543236E-4,1.5271618E-4,,,,,,,,,,,,,,,,,,,,,
SENSOR,1789661118751,40848999498237,0.15732808,0.20697916,9.867104,0.0,3.0543236E-4,1.5271618E-4,,,,,,,,,,,,,,,,,,,,,
CELLULAR,1789661118751,,,,,,,,,,,,,,true,NR,4298047506,405,869,,75,486,156510,-80,NR_SS_RSRP,4,
SENSOR,1789661118768,40849014498237,0.15732808,0.20697916,9.867104,0.0,3.0543236E-4,1.5271618E-4,-47.7,3.7500002,4.05,,,,,,,,,,,,,,,,,,
SENSOR,1789661118831,40849019498237,0.15373886,0.20129621,9.870692,0.0,3.0543236E-4,1.5271618E-4,-47.7,3.7500002,4.05,,,,,,,,,,,,,,,,,,
SENSOR,1789661118831,40849039498237,0.1591227,0.20368902,9.867402,0.0,3.0543236E-4,1.5271618E-4,-47.7,3.7500002,4.05,,,,,,,,,,,,,,,,,,
SENSOR,1789661118831,40849059498237,0.15613168,0.20279172,9.870394,0.0,3.0543236E-4,1.5271618E-4,-47.7,3.7500002,4.05,,,,,,,,,,,,,,,,,,
SENSOR,1789661118831,40849079498237,0.15403795,0.19860429,9.870394,0.0,3.0543236E-4,1.5271618E-4,-47.7,3.7500002,4.05,,,,,,,,,,,,,,,,,,
SENSOR,1789661118849,40849104498237,0.15403795,0.19860429,9.870394,0.0,3.0543236E-4,1.5271618E-4,-47.7,3.7500002,4.05,,,,,,,,,,,,,,,,,,
SENSOR,1789661118865,40849114498237,0.15403795,0.19860429,9.870394,0.0,3.0543236E-4,1.5271618E-4,-48.225002,3.9750001,5.4750004,,,,,,,,,,,,,,,,,,
SENSOR,1789661118933,40849099498237,0.15792629,0.19710876,9.874282,0.0,3.0543236E-4,1.5271618E-4,-48.225002,3.9750001,5.4750004,,,,,,,,,,,,,,,,,,
SENSOR,1789661118933,40849119498237,0.1576272,0.19980069,9.866206,0.0,3.0543236E-4,1.5271618E-4,-48.225002,3.9750001,5.4750004,,,,,,,,,,,,,,,,,,
SENSOR,1789661118933,40849139498237,0.15792629,0.200698,9.8727865,0.0,3.0543236E-4,1.5271618E-4,-48.225002,3.9750001,5.4750004,,,,,,,,,,,,,,,,,,
SENSOR,1789661118933,40849159498237,0.15972091,0.20309082,9.868001,0.0,3.0543236E-4,1.5271618E-4,-48.225002,3.9750001,5.4750004,,,,,,,,,,,,,,,,,,
SENSOR,1789661118934,40849179498237,0.15702899,0.20249261,9.870394,0.0,3.0543236E-4,1.5271618E-4,-48.225002,3.9750001,5.4750004,,,,,,,,,,,,,,,,,,
SENSOR,1789661118942,40849204498237,0.15702899,0.20249261,9.870394,0.0,3.0543236E-4,-7.635809E-4,-48.225002,3.9750001,5.4750004,,,,,,,,,,,,,,,,,,
SENSOR,1789661118968,40849214498237,0.15702899,0.20249261,9.870394,0.0,3.0543236E-4,-7.635809E-4,-49.125004,4.275,6.2250004,,,,,,,,,,,,,,,,,,
SENSOR,1789661119031,40849199498237,0.15343975,0.20219351,9.871889,0.0,3.0543236E-4,-7.635809E-4,-49.125004,4.275,6.2250004,,,,,,,,,,,,,,,,,,
SENSOR,1789661119032,40849219498237,0.15672988,0.20398813,9.869795,0.0,3.0543236E-4,-7.635809E-4,-49.125004,4.275,6.2250004,,,,,,,,,,,,,,,,,,
SENSOR,1789661119032,40849239498237,0.15972091,0.19890338,9.870692,0.0,3.0543236E-4,-7.635809E-4,-49.125004,4.275,6.2250004,,,,,,,,,,,,,,,,,,
SENSOR,1789661119032,40849259498237,0.15702899,0.2009971,9.869795,0.0,3.0543236E-4,-7.635809E-4,-49.125004,4.275,6.2250004,,,,,,,,,,,,,,,,,,
SENSOR,1789661119032,40849279498237,0.15403795,0.20309082,9.870394,0.0,3.0543236E-4,-7.635809E-4,-49.125004,4.275,6.2250004,,,,,,,,,,,,,,,,,,
SENSOR,1789661119047,40849304498237,0.15403795,0.20309082,9.870394,0.0,9.162971E-4,1.5271618E-4,-49.125004,4.275,6.2250004,,,,,,,,,,,,,,,,,,
SENSOR,1789661119064,40849314498237,0.15403795,0.20309082,9.870394,0.0,9.162971E-4,1.5271618E-4,-48.375004,4.2000003,5.625,,,,,,,,,,,,,,,,,,
SENSOR,1789661119131,40849299498237,0.15732808,0.20219351,9.865907,0.0,9.162971E-4,1.5271618E-4,-48.375004,4.2000003,5.625,,,,,,,,,,,,,,,,,,
SENSOR,1789661119132,40849319498237,0.15493527,0.19950159,9.868897,0.0,9.162971E-4,1.5271618E-4,-48.375004,4.2000003,5.625,,,,,,,,,,,,,,,,,,
SENSOR,1789661119132,40849339498237,0.15493527,0.20309082,9.863514,0.0,9.162971E-4,1.5271618E-4,-48.375004,4.2000003,5.625,,,,,,,,,,,,,,,,,,
SENSOR,1789661119132,40849359498237,0.15732808,0.20518455,9.870394,0.0,9.162971E-4,1.5271618E-4,-48.375004,4.2000003,5.625,,,,,,,,,,,,,,,,,,
SENSOR,1789661119132,40849379498237,0.1582254,0.20488544,9.870394,0.0,9.162971E-4,1.5271618E-4,-48.375004,4.2000003,5.625,,,,,,,,,,,,,,,,,,
SENSOR,1789661119141,40849404498237,0.1582254,0.20488544,9.870394,0.0,-9.162971E-4,1.5271618E-4,-48.375004,4.2000003,5.625,,,,,,,,,,,,,,,,,,
SENSOR,1789661119168,40849414498237,0.1582254,0.20488544,9.870394,0.0,-9.162971E-4,1.5271618E-4,-48.975002,3.825,5.4,,,,,,,,,,,,,,,,,,
SENSOR,1789661119231,40849399498237,0.15792629,0.19890338,9.869496,0.0,-9.162971E-4,1.5271618E-4,-48.975002,3.825,5.4,,,,,,,,,,,,,,,,,,
SENSOR,1789661119232,40849419498237,0.1582254,0.20338993,9.871291,0.0,-9.162971E-4,1.5271618E-4,-48.975002,3.825,5.4,,,,,,,,,,,,,,,,,,
SENSOR,1789661119232,40849439498237,0.15463616,0.2015953,9.867702,0.0,-9.162971E-4,1.5271618E-4,-48.975002,3.825,5.4,,,,,,,,,,,,,,,,,,
SENSOR,1789661119232,40849459498237,0.15732808,0.20039889,9.875179,0.0,-9.162971E-4,1.5271618E-4,-48.975002,3.825,5.4,,,,,,,,,,,,,,,,,,
SENSOR,1789661119232,40849479498237,0.15553348,0.19531415,9.863514,0.0,-9.162971E-4,1.5271618E-4,-48.975002,3.825,5.4,,,,,,,,,,,,,,,,,,
SENSOR,1789661119247,40849504498237,0.15553348,0.19531415,9.863514,0.0,-9.162971E-4,-4.5814854E-4,-48.975002,3.825,5.4,,,,,,,,,,,,,,,,,,
SENSOR,1789661119264,40849514498237,0.15553348,0.19531415,9.863514,0.0,-9.162971E-4,-4.5814854E-4,-48.825,3.7500002,5.925,,,,,,,,,,,,,,,,,,
SENSOR,1789661119331,40849499498237,0.15672988,0.20488544,9.864711,0.0,-9.162971E-4,-4.5814854E-4,-48.825,3.7500002,5.925,,,,,,,,,,,,,,,,,,
SENSOR,1789661119331,40849519498237,0.15882361,0.19531415,9.874282,0.0,-9.162971E-4,-4.5814854E-4,-48.825,3.7500002,5.925,,,,,,,,,,,,,,,,,,
SENSOR,1789661119332,40849539498237,0.1576272,0.20279172,9.871291,0.0,-9.162971E-4,-4.5814854E-4,-48.825,3.7500002,5.925,,,,,,,,,,,,,,,,,,
SENSOR,1789661119332,40849559498237,0.1591227,0.20428723,9.868599,0.0,-9.162971E-4,-4.5814854E-4,-48.825,3.7500002,5.925,,,,,,,,,,,,,,,,,,
SENSOR,1789661119332,40849579498237,0.15553348,0.20578274,9.871291,0.0,-9.162971E-4,-4.5814854E-4,-48.825,3.7500002,5.925,,,,,,,,,,,,,,,,,,
SENSOR,1789661119341,40849604498237,0.15553348,0.20578274,9.871291,0.0,3.0543236E-4,1.5271618E-4,-48.825,3.7500002,5.925,,,,,,,,,,,,,,,,,,
SENSOR,1789661119367,40849614498237,0.15553348,0.20578274,9.871291,0.0,3.0543236E-4,1.5271618E-4,-48.750004,3.7500002,6.3,,,,,,,,,,,,,,,,,,
SENSOR,1789661119431,40849599498237,0.15433706,0.20608185,9.873384,0.0,3.0543236E-4,1.5271618E-4,-48.750004,3.7500002,6.3,,,,,,,,,,,,,,,,,,
SENSOR,1789661119431,40849619498237,0.16091733,0.20338993,9.873982,0.0,3.0543236E-4,1.5271618E-4,-48.750004,3.7500002,6.3,,,,,,,,,,,,,,,,,,
SENSOR,1789661119433,40849639498237,0.1591227,0.19980069,9.870992,0.0,3.0543236E-4,1.5271618E-4,-48.750004,3.7500002,6.3,,,,,,,,,,,,,,,,,,
SENSOR,1789661119434,40849659498237,0.16151553,0.20368902,9.870394,0.0,3.0543236E-4,1.5271618E-4,-48.750004,3.7500002,6.3,,,,,,,,,,,,,,,,,,
SENSOR,1789661119434,40849679498237,0.16031912,0.2009971,9.871889,0.0,3.0543236E-4,1.5271618E-4,-48.750004,3.7500002,6.3,,,,,,,,,,,,,,,,,,
SENSOR,1789661119447,40849704498237,0.16031912,0.2009971,9.871889,0.0,-4.5814854E-4,-0.0010690133,-48.750004,3.7500002,6.3,,,,,,,,,,,,,,,,,,
SENSOR,1789661119465,40849714498237,0.16031912,0.2009971,9.871889,0.0,-4.5814854E-4,-0.0010690133,-49.725002,3.9750001,6.7500005,,,,,,,,,,,,,,,,,,
SENSOR,1789661119531,40849699498237,0.15613168,0.20578274,9.870394,0.0,-4.5814854E-4,-0.0010690133,-49.725002,3.9750001,6.7500005,,,,,,,,,,,,,,,,,,
SENSOR,1789661119543,40849719498237,0.1582254,0.20219351,9.865309,0.0,-4.5814854E-4,-0.0010690133,-49.725002,3.9750001,6.7500005,,,,,,,,,,,,,,,,,,
SENSOR,1789661119543,40849739498237,0.15164514,0.20189442,9.869197,0.0,-4.5814854E-4,-0.0010690133,-49.725002,3.9750001,6.7500005,,,,,,,,,,,,,,,,,,
SENSOR,1789661119543,40849759498237,0.15314065,0.2009971,9.867402,0.0,-4.5814854E-4,-0.0010690133,-49.725002,3.9750001,6.7500005,,,,,,,,,,,,,,,,,,
SENSOR,1789661119543,40849779498237,0.15583257,0.2015953,9.869795,0.0,-4.5814854E-4,-0.0010690133,-49.725002,3.9750001,6.7500005,,,,,,,,,,,,,,,,,,
SENSOR,1789661119543,40849804498237,0.15583257,0.2015953,9.869795,0.0,1.5271618E-4,1.5271618E-4,-49.725002,3.9750001,6.7500005,,,,,,,,,,,,,,,,,,
SENSOR,1789661119567,40849814498237,0.15583257,0.2015953,9.869795,0.0,1.5271618E-4,1.5271618E-4,-49.425003,3.9750001,6.675,,,,,,,,,,,,,,,,,,
SENSOR,1789661119631,40849799498237,0.15643078,0.19980069,9.870992,0.0,1.5271618E-4,1.5271618E-4,-49.425003,3.9750001,6.675,,,,,,,,,,,,,,,,,,
SENSOR,1789661119632,40849819498237,0.1585245,0.2000998,9.870394,0.0,1.5271618E-4,1.5271618E-4,-49.425003,3.9750001,6.675,,,,,,,,,,,,,,,,,,
SENSOR,1789661119632,40849839498237,0.15523437,0.20548365,9.871889,0.0,1.5271618E-4,1.5271618E-4,-49.425003,3.9750001,6.675,,,,,,,,,,,,,,,,,,
SENSOR,1789661119633,40849859498237,0.15343975,0.20129621,9.870992,0.0,1.5271618E-4,1.5271618E-4,-49.425003,3.9750001,6.675,,,,,,,,,,,,,,,,,,
SENSOR,1789661119633,40849879498237,0.15972091,0.20219351,9.867402,0.0,1.5271618E-4,1.5271618E-4,-49.425003,3.9750001,6.675,,,,,,,,,,,,,,,,,,
SENSOR,1789661119646,40849904498237,0.15972091,0.20219351,9.867402,0.0,3.0543236E-4,-4.5814854E-4,-49.425003,3.9750001,6.675,,,,,,,,,,,,,,,,,,
SENSOR,1789661119665,40849914498237,0.15972091,0.20219351,9.867402,0.0,3.0543236E-4,-4.5814854E-4,-49.725002,4.125,6.6000004,,,,,,,,,,,,,,,,,,
SENSOR,1789661119731,40849899498237,0.15643078,0.2009971,9.865309,0.0,3.0543236E-4,-4.5814854E-4,-49.725002,4.125,6.6000004,,,,,,,,,,,,,,,,,,
SENSOR,1789661119732,40849919498237,0.15224335,0.2015953,9.864112,0.0,3.0543236E-4,-4.5814854E-4,-49.725002,4.125,6.6000004,,,,,,,,,,,,,,,,,,
SENSOR,1789661119732,40849939498237,0.15373886,0.19950159,9.869795,0.0,3.0543236E-4,-4.5814854E-4,-49.725002,4.125,6.6000004,,,,,,,,,,,,,,,,,,
SENSOR,1789661119732,40849959498237,0.15403795,0.20219351,9.862916,0.0,3.0543236E-4,-4.5814854E-4,-49.725002,4.125,6.6000004,,,,,,,,,,,,,,,,,,
SENSOR,1789661119733,40849979498237,0.15613168,0.20189442,9.869197,0.0,3.0543236E-4,-4.5814854E-4,-49.725002,4.125,6.6000004,,,,,,,,,,,,,,,,,,
SENSOR,1789661119750,40850004498237,0.15613168,0.20189442,9.869197,0.0,3.0543236E-4,1.5271618E-4,-49.725002,4.125,6.6000004,,,,,,,,,,,,,,,,,,
CELLULAR,1789661119763,,,,,,,,,,,,,,true,NR,4298047490,405,869,,75,403,634080,-106,NR_SS_RSRP,3,
SENSOR,1789661119779,40850014498237,0.15613168,0.20189442,9.869197,0.0,3.0543236E-4,1.5271618E-4,-49.575,3.6750002,7.3500004,,,,,,,,,,,,,,,,,,
SENSOR,1789661119832,40849999498237,0.15373886,0.200698,9.868599,0.0,3.0543236E-4,1.5271618E-4,-49.575,3.6750002,7.3500004,,,,,,,,,,,,,,,,,,
SENSOR,1789661119832,40850019498237,0.15972091,0.20039889,9.867702,0.0,3.0543236E-4,1.5271618E-4,-49.575,3.6750002,7.3500004,,,,,,,,,,,,,,,,,,
SENSOR,1789661119832,40850039498237,0.1585245,0.20219351,9.867104,0.0,3.0543236E-4,1.5271618E-4,-49.575,3.6750002,7.3500004,,,,,,,,,,,,,,,,,,
SENSOR,1789661119833,40850059498237,0.15702899,0.19710876,9.865907,0.0,3.0543236E-4,1.5271618E-4,-49.575,3.6750002,7.3500004,,,,,,,,,,,,,,,,,,
SENSOR,1789661119833,40850079498237,0.16091733,0.19950159,9.868599,0.0,3.0543236E-4,1.5271618E-4,-49.575,3.6750002,7.3500004,,,,,,,,,,,,,,,,,,
SENSOR,1789661119844,40850104498237,0.16091733,0.19950159,9.868599,0.0,3.0543236E-4,1.5271618E-4,-49.575,3.6750002,7.3500004,,,,,,,,,,,,,,,,,,
SENSOR,1789661119862,40850114498237,0.16091733,0.19950159,9.868599,0.0,3.0543236E-4,1.5271618E-4,-48.300003,3.9,4.5,,,,,,,,,,,,,,,,,,
SENSOR,1789661119932,40850099498237,0.15732808,0.20578274,9.866804,0.0,3.0543236E-4,1.5271618E-4,-48.300003,3.9,4.5,,,,,,,,,,,,,,,,,,
SENSOR,1789661119932,40850119498237,0.15433706,0.200698,9.870692,0.0,3.0543236E-4,1.5271618E-4,-48.300003,3.9,4.5,,,,,,,,,,,,,,,,,,
SENSOR,1789661119932,40850139498237,0.15014961,0.20279172,9.866206,0.0,3.0543236E-4,1.5271618E-4,-48.300003,3.9,4.5,,,,,,,,,,,,,,,,,,
SENSOR,1789661119932,40850159498237,0.15463616,0.200698,9.8682995,0.0,3.0543236E-4,1.5271618E-4,-48.300003,3.9,4.5,,,,,,,,,,,,,,,,,,
SENSOR,1789661119932,40850179498237,0.15373886,0.20338993,9.865608,0.0,3.0543236E-4,1.5271618E-4,-48.300003,3.9,4.5,,,,,,,,,,,,,,,,,,
SENSOR,1789661119949,40850204498237,0.15373886,0.20338993,9.865608,0.0,3.0543236E-4,1.5271618E-4,-48.300003,3.9,4.5,,,,,,,,,,,,,,,,,,
SENSOR,1789661119967,40850214498237,0.15373886,0.20338993,9.865608,0.0,3.0543236E-4,1.5271618E-4,-49.350002,4.3500004,5.625,,,,,,,,,,,,,,,,,,
SENSOR,1789661120031,40850199498237,0.15463616,0.19740787,9.868897,0.0,3.0543236E-4,1.5271618E-4,-49.350002,4.3500004,5.625,,,,,,,,,,,,,,,,,,
SENSOR,1789661120032,40850219498237,0.15314065,0.20129621,9.8682995,0.0,3.0543236E-4,1.5271618E-4,-49.350002,4.3500004,5.625,,,,,,,,,,,,,,,,,,
SENSOR,1789661120032,40850239498237,0.15882361,0.19830517,9.871889,0.0,3.0543236E-4,1.5271618E-4,-49.350002,4.3500004,5.625,,,,,,,,,,,,,,,,,,
SENSOR,1789661120032,40850259498237,0.15314065,0.20189442,9.8682995,0.0,3.0543236E-4,1.5271618E-4,-49.350002,4.3500004,5.625,,,,,,,,,,,,,,,,,,
SENSOR,1789661120032,40850279498237,0.15882361,0.19920248,9.8682995,0.0,3.0543236E-4,1.5271618E-4,-49.350002,4.3500004,5.625,,,,,,,,,,,,,,,,,,
SENSOR,1789661120045,40850304498237,0.15882361,0.19920248,9.8682995,0.0,3.0543236E-4,1.5271618E-4,-49.350002,4.3500004,5.625,,,,,,,,,,,,,,,,,,
SENSOR,1789661120062,40850314498237,0.15882361,0.19920248,9.8682995,0.0,3.0543236E-4,1.5271618E-4,-49.2,4.2000003,6.675,,,,,,,,,,,,,,,,,,
SENSOR,1789661120131,40850299498237,0.15583257,0.20428723,9.870692,0.0,3.0543236E-4,1.5271618E-4,-49.2,4.2000003,6.675,,,,,,,,,,,,,,,,,,
SENSOR,1789661120132,40850319498237,0.15463616,0.2000998,9.870094,0.0,3.0543236E-4,1.5271618E-4,-49.2,4.2000003,6.675,,,,,,,,,,,,,,,,,,
SENSOR,1789661120132,40850339498237,0.1582254,0.20129621,9.866505,0.0,3.0543236E-4,1.5271618E-4,-49.2,4.2000003,6.675,,,,,,,,,,,,,,,,,,
SENSOR,1789661120132,40850359498237,0.15343975,0.19770697,9.867104,0.0,3.0543236E-4,1.5271618E-4,-49.2,4.2000003,6.675,,,,,,,,,,,,,,,,,,
SENSOR,1789661120132,40850379498237,0.15194423,0.20458634,9.871291,0.0,3.0543236E-4,1.5271618E-4,-49.2,4.2000003,6.675,,,,,,,,,,,,,,,,,,
SENSOR,1789661120148,40850404498237,0.15194423,0.20458634,9.871291,0.0,-9.162971E-4,1.5271618E-4,-49.2,4.2000003,6.675,,,,,,,,,,,,,,,,,,
GNSS,1789661119286,,true,11.0554049,76.9271175,374.70001220703125,20.0,,,0,0,,,,,,,,,,,,,
SENSOR,1789661120170,40850414498237,0.15194423,0.20458634,9.871291,0.0,-9.162971E-4,1.5271618E-4,-47.7,4.275,3.6000001,,,,,,,,,,,,,,,,,,
SENSOR,1789661120231,40850399498237,0.15583257,0.19980069,9.869197,0.0,-9.162971E-4,1.5271618E-4,-47.7,4.275,3.6000001,,,,,,,,,,,,,,,,,,
SENSOR,1789661120231,40850419498237,0.15732808,0.2009971,9.8632145,0.0,-9.162971E-4,1.5271618E-4,-47.7,4.275,3.6000001,,,,,,,,,,,,,,,,,,
SENSOR,1789661120231,40850439498237,0.15343975,0.20368902,9.868001,0.0,-9.162971E-4,1.5271618E-4,-47.7,4.275,3.6000001,,,,,,,,,,,,,,,,,,
SENSOR,1789661120231,40850459498237,0.15463616,0.19980069,9.866804,0.0,-9.162971E-4,1.5271618E-4,-47.7,4.275,3.6000001,,,,,,,,,,,,,,,,,,
SENSOR,1789661120231,40850479498237,0.15463616,0.19860429,9.865907,0.0,-9.162971E-4,1.5271618E-4,-47.7,4.275,3.6000001,,,,,,,,,,,,,,,,,,
SENSOR,1789661120245,40850504498237,0.15463616,0.19860429,9.865907,-4.5814854E-4,3.0543236E-4,-3.0543236E-4,-47.7,4.275,3.6000001,,,,,,,,,,,,,,,,,,
SENSOR,1789661120262,40850514498237,0.15463616,0.19860429,9.865907,-4.5814854E-4,3.0543236E-4,-3.0543236E-4,-48.525,4.05,5.775,,,,,,,,,,,,,,,,,,
GNSS,1789661120285,,true,11.0554049,76.9271175,374.70001220703125,27.021,,,0,0,,,,,,,,,,,,,
SENSOR,1789661120332,40850499498237,0.15672988,0.2000998,9.866804,-4.5814854E-4,3.0543236E-4,-3.0543236E-4,-48.525,4.05,5.775,,,,,,,,,,,,,,,,,,
SENSOR,1789661120333,40850519498237,0.1582254,0.20219351,9.869496,-4.5814854E-4,3.0543236E-4,-3.0543236E-4,-48.525,4.05,5.775,,,,,,,,,,,,,,,,,,
SENSOR,1789661120333,40850539498237,0.15702899,0.20249261,9.87159,-4.5814854E-4,3.0543236E-4,-3.0543236E-4,-48.525,4.05,5.775,,,,,,,,,,,,,,,,,,
SENSOR,1789661120333,40850559498237,0.15583257,0.19950159,9.869197,-4.5814854E-4,3.0543236E-4,-3.0543236E-4,-48.525,4.05,5.775,,,,,,,,,,,,,,,,,,
SENSOR,1789661120334,40850579498237,0.16121642,0.20398813,9.865309,-4.5814854E-4,3.0543236E-4,-3.0543236E-4,-48.525,4.05,5.775,,,,,,,,,,,,,,,,,,
SENSOR,1789661120348,40850604498237,0.16121642,0.20398813,9.865309,0.0,3.0543236E-4,-0.0010690133,-48.525,4.05,5.775,,,,,,,,,,,,,,,,,,
SENSOR,1789661120366,40850614498237,0.16121642,0.20398813,9.865309,0.0,3.0543236E-4,-0.0010690133,-49.800003,4.05,7.05,,,,,,,,,,,,,,,,,,
SENSOR,1789661120431,40850599498237,0.15553348,0.20129621,9.865009,0.0,3.0543236E-4,-0.0010690133,-49.800003,4.05,7.05,,,,,,,,,,,,,,,,,,
SENSOR,1789661120432,40850619498237,0.15702899,0.20458634,9.866505,0.0,3.0543236E-4,-0.0010690133,-49.800003,4.05,7.05,,,,,,,,,,,,,,,,,,
SENSOR,1789661120432,40850639498237,0.15523437,0.20189442,9.863514,0.0,3.0543236E-4,-0.0010690133,-49.800003,4.05,7.05,,,,,,,,,,,,,,,,,,
SENSOR,1789661120432,40850659498237,0.15254244,0.20428723,9.872188,0.0,3.0543236E-4,-0.0010690133,-49.800003,4.05,7.05,,,,,,,,,,,,,,,,,,
SENSOR,1789661120432,40850679498237,0.15613168,0.20398813,9.865907,0.0,3.0543236E-4,-0.0010690133,-49.800003,4.05,7.05,,,,,,,,,,,,,,,,,,
SENSOR,1789661120443,40850704498237,0.15613168,0.20398813,9.865907,0.0,-9.162971E-4,1.5271618E-4,-49.800003,4.05,7.05,,,,,,,,,,,,,,,,,,
SENSOR,1789661120463,40850714498237,0.15613168,0.20398813,9.865907,0.0,-9.162971E-4,1.5271618E-4,-49.800003,3.7500002,7.5750003,,,,,,,,,,,,,,,,,,
SENSOR,1789661120531,40850699498237,0.15493527,0.19980069,9.870692,0.0,-9.162971E-4,1.5271618E-4,-49.800003,3.7500002,7.5750003,,,,,,,,,,,,,,,,,,
SENSOR,1789661120531,40850719498237,0.15403795,0.20309082,9.866804,0.0,-9.162971E-4,1.5271618E-4,-49.800003,3.7500002,7.5750003,,,,,,,,,,,,,,,,,,
SENSOR,1789661120531,40850739498237,0.15523437,0.19621146,9.868599,0.0,-9.162971E-4,1.5271618E-4,-49.800003,3.7500002,7.5750003,,,,,,,,,,,,,,,,,,
SENSOR,1789661120532,40850759498237,0.15553348,0.20458634,9.865907,0.0,-9.162971E-4,1.5271618E-4,-49.800003,3.7500002,7.5750003,,,,,,,,,,,,,,,,,,
SENSOR,1789661120532,40850779498237,0.1594218,0.19860429,9.871291,0.0,-9.162971E-4,1.5271618E-4,-49.800003,3.7500002,7.5750003,,,,,,,,,,,,,,,,,,
SENSOR,1789661120548,40850804498237,0.1594218,0.19860429,9.871291,0.0,0.0,1.5271618E-4,-49.800003,3.7500002,7.5750003,,,,,,,,,,,,,,,,,,
SENSOR,1789661120566,40850814498237,0.1594218,0.19860429,9.871291,0.0,0.0,1.5271618E-4,-49.800003,3.525,7.275,,,,,,,,,,,,,,,,,,
SENSOR,1789661120631,40850799498237,0.15373886,0.20189442,9.867104,0.0,0.0,1.5271618E-4,-49.800003,3.525,7.275,,,,,,,,,,,,,,,,,,
SENSOR,1789661120631,40850819498237,0.16031912,0.2015953,9.870094,0.0,0.0,1.5271618E-4,-49.800003,3.525,7.275,,,,,,,,,,,,,,,,,,
SENSOR,1789661120631,40850839498237,0.15493527,0.19920248,9.872487,0.0,0.0,1.5271618E-4,-49.800003,3.525,7.275,,,,,,,,,,,,,,,,,,
SENSOR,1789661120631,40850859498237,0.15463616,0.20189442,9.873085,0.0,0.0,1.5271618E-4,-49.800003,3.525,7.275,,,,,,,,,,,,,,,,,,
SENSOR,1789661120631,40850879498237,0.1576272,0.20279172,9.869795,0.0,0.0,1.5271618E-4,-49.800003,3.525,7.275,,,,,,,,,,,,,,,,,,
SENSOR,1789661120644,40850904498237,0.1576272,0.20279172,9.869795,0.0,3.0543236E-4,1.5271618E-4,-49.800003,3.525,7.275,,,,,,,,,,,,,,,,,,
SENSOR,1789661120663,40850914498237,0.1576272,0.20279172,9.869795,0.0,3.0543236E-4,1.5271618E-4,-49.125004,3.6000001,6.15,,,,,,,,,,,,,,,,,,
GNSS,1789661120685,,true,11.0554049,76.9271175,374.70001220703125,27.021,,,51,0,,,,,,,,,,,,,
SENSOR,1789661120731,40850899498237,0.15284155,0.20368902,9.868897,0.0,3.0543236E-4,1.5271618E-4,-49.125004,3.6000001,6.15,,,,,,,,,,,,,,,,,,
SENSOR,1789661120731,40850919498237,0.15882361,0.19860429,9.873684,0.0,3.0543236E-4,1.5271618E-4,-49.125004,3.6000001,6.15,,,,,,,,,,,,,,,,,,
SENSOR,1789661120731,40850939498237,0.15403795,0.19890338,9.8682995,0.0,3.0543236E-4,1.5271618E-4,-49.125004,3.6000001,6.15,,,,,,,,,,,,,,,,,,
SENSOR,1789661120731,40850959498237,0.15224335,0.20219351,9.868001,0.0,3.0543236E-4,1.5271618E-4,-49.125004,3.6000001,6.15,,,,,,,,,,,,,,,,,,
SENSOR,1789661120731,40850979498237,0.15672988,0.19621146,9.87488,0.0,3.0543236E-4,1.5271618E-4,-49.125004,3.6000001,6.15,,,,,,,,,,,,,,,,,,
SENSOR,1789661120747,40851004498237,0.15672988,0.19621146,9.87488,0.0,3.0543236E-4,-7.635809E-4,-49.125004,3.6000001,6.15,,,,,,,,,,,,,,,,,,
SENSOR,1789661120766,40851014498237,0.15672988,0.19621146,9.87488,0.0,3.0543236E-4,-7.635809E-4,-49.875004,3.3750002,7.5750003,,,,,,,,,,,,,,,,,,
CELLULAR,1789661120779,,,,,,,,,,,,,,true,NR,4298047490,405,869,,75,403,634080,-106,NR_SS_RSRP,3,
SENSOR,1789661120831,40850999498237,0.15792629,0.20039889,9.871291,0.0,3.0543236E-4,-7.635809E-4,-49.875004,3.3750002,7.5750003,,,,,,,,,,,,,,,,,,
SENSOR,1789661120832,40851019498237,0.15643078,0.2000998,9.871889,0.0,3.0543236E-4,-7.635809E-4,-49.875004,3.3750002,7.5750003,,,,,,,,,,,,,,,,,,
SENSOR,1789661120832,40851039498237,0.15882361,0.19890338,9.866505,0.0,3.0543236E-4,-7.635809E-4,-49.875004,3.3750002,7.5750003,,,,,,,,,,,,,,,,,,
SENSOR,1789661120832,40851059498237,0.15732808,0.20039889,9.865009,0.0,3.0543236E-4,-7.635809E-4,-49.875004,3.3750002,7.5750003,,,,,,,,,,,,,,,,,,
SENSOR,1789661120832,40851079498237,0.15343975,0.2000998,9.864711,0.0,3.0543236E-4,-7.635809E-4,-49.875004,3.3750002,7.5750003,,,,,,,,,,,,,,,,,,
SENSOR,1789661120843,40851104498237,0.15343975,0.2000998,9.864711,0.0,-1.5271618E-4,1.5271618E-4,-49.875004,3.3750002,7.5750003,,,,,,,,,,,,,,,,,,
SENSOR,1789661120870,40851114498237,0.15343975,0.2000998,9.864711,0.0,-1.5271618E-4,1.5271618E-4,-49.875004,4.05,6.9,,,,,,,,,,,,,,,,,,
SENSOR,1789661120931,40851099498237,0.15433706,0.20129621,9.866505,0.0,-1.5271618E-4,1.5271618E-4,-49.875004,4.05,6.9,,,,,,,,,,,,,,,,,,
SENSOR,1789661120932,40851119498237,0.1594218,0.20608185,9.864411,0.0,-1.5271618E-4,1.5271618E-4,-49.875004,4.05,6.9,,,,,,,,,,,,,,,,,,
SENSOR,1789661120932,40851139498237,0.15433706,0.20578274,9.870692,0.0,-1.5271618E-4,1.5271618E-4,-49.875004,4.05,6.9,,,,,,,,,,,,,,,,,,
SENSOR,1789661120932,40851159498237,0.15553348,0.20548365,9.8682995,0.0,-1.5271618E-4,1.5271618E-4,-49.875004,4.05,6.9,,,,,,,,,,,,,,,,,,
SENSOR,1789661120932,40851179498237,0.15523437,0.19950159,9.867104,0.0,-1.5271618E-4,1.5271618E-4,-49.875004,4.05,6.9,,,,,,,,,,,,,,,,,,
SENSOR,1789661120948,40851204498237,0.15523437,0.19950159,9.867104,-9.162971E-4,3.0543236E-4,1.5271618E-4,-49.875004,4.05,6.9,,,,,,,,,,,,,,,,,,
SENSOR,1789661120965,40851214498237,0.15523437,0.19950159,9.867104,-9.162971E-4,3.0543236E-4,1.5271618E-4,-49.425003,3.9750001,7.2000003,,,,,,,,,,,,,,,,,,
SENSOR,1789661121031,40851199498237,0.15463616,0.20398813,9.87159,-9.162971E-4,3.0543236E-4,1.5271618E-4,-49.425003,3.9750001,7.2000003,,,,,,,,,,,,,,,,,,
SENSOR,1789661121032,40851219498237,0.15882361,0.20129621,9.868001,-9.162971E-4,3.0543236E-4,1.5271618E-4,-49.425003,3.9750001,7.2000003,,,,,,,,,,,,,,,,,,
SENSOR,1789661121032,40851239498237,0.15882361,0.19950159,9.867402,-9.162971E-4,3.0543236E-4,1.5271618E-4,-49.425003,3.9750001,7.2000003,,,,,,,,,,,,,,,,,,
SENSOR,1789661121032,40851259498237,0.16061822,0.2015953,9.869197,-9.162971E-4,3.0543236E-4,1.5271618E-4,-49.425003,3.9750001,7.2000003,,,,,,,,,,,,,,,,,,
SENSOR,1789661121032,40851279498237,0.15613168,0.19770697,9.872487,-9.162971E-4,3.0543236E-4,1.5271618E-4,-49.425003,3.9750001,7.2000003,,,,,,,,,,,,,,,,,,
SENSOR,1789661121043,40851304498237,0.15613168,0.19770697,9.872487,-1.5271618E-4,3.0543236E-4,1.5271618E-4,-49.425003,3.9750001,7.2000003,,,,,,,,,,,,,,,,,,
SENSOR,1789661121069,40851314498237,0.15613168,0.19770697,9.872487,-1.5271618E-4,3.0543236E-4,1.5271618E-4,-48.825,4.05,5.625,,,,,,,,,,,,,,,,,,
SENSOR,1789661121130,40851299498237,0.15194423,0.20249261,9.868897,-1.5271618E-4,3.0543236E-4,1.5271618E-4,-48.825,4.05,5.625,,,,,,,,,,,,,,,,,,
SENSOR,1789661121131,40851319498237,0.15732808,0.20219351,9.869795,-1.5271618E-4,3.0543236E-4,1.5271618E-4,-48.825,4.05,5.625,,,,,,,,,,,,,,,,,,
SENSOR,1789661121131,40851339498237,0.15463616,0.20458634,9.865009,-1.5271618E-4,3.0543236E-4,1.5271618E-4,-48.825,4.05,5.625,,,,,,,,,,,,,,,,,,
SENSOR,1789661121131,40851359498237,0.1585245,0.19591236,9.864411,-1.5271618E-4,3.0543236E-4,1.5271618E-4,-48.825,4.05,5.625,,,,,,,,,,,,,,,,,,
SENSOR,1789661121131,40851379498237,0.15493527,0.20129621,9.870094,-1.5271618E-4,3.0543236E-4,1.5271618E-4,-48.825,4.05,5.625,,,,,,,,,,,,,,,,,,
SENSOR,1789661121148,40851404498237,0.15493527,0.20129621,9.870094,0.0,3.0543236E-4,1.5271618E-4,-48.825,4.05,5.625,,,,,,,,,,,,,,,,,,
SENSOR,1789661121165,40851414498237,0.15493527,0.20129621,9.870094,0.0,3.0543236E-4,1.5271618E-4,-49.350002,3.6000001,6.7500005,,,,,,,,,,,,,,,,,,
SENSOR,1789661121231,40851399498237,0.14985052,0.20309082,9.868599,0.0,3.0543236E-4,1.5271618E-4,-49.350002,3.6000001,6.7500005,,,,,,,,,,,,,,,,,,
SENSOR,1789661121232,40851419498237,0.1591227,0.20428723,9.868001,0.0,3.0543236E-4,1.5271618E-4,-49.350002,3.6000001,6.7500005,,,,,,,,,,,,,,,,,,
SENSOR,1789661121232,40851439498237,0.15403795,0.19830517,9.8682995,0.0,3.0543236E-4,1.5271618E-4,-49.350002,3.6000001,6.7500005,,,,,,,,,,,,,,,,,,
SENSOR,1789661121232,40851459498237,0.15493527,0.20039889,9.864711,0.0,3.0543236E-4,1.5271618E-4,-49.350002,3.6000001,6.7500005,,,,,,,,,,,,,,,,,,
SENSOR,1789661121232,40851479498237,0.15523437,0.200698,9.872487,0.0,3.0543236E-4,1.5271618E-4,-49.350002,3.6000001,6.7500005,,,,,,,,,,,,,,,,,,
SENSOR,1789661121243,40851504498237,0.15523437,0.200698,9.872487,0.0,3.0543236E-4,1.5271618E-4,-49.350002,3.6000001,6.7500005,,,,,,,,,,,,,,,,,,
SENSOR,1789661121272,40851514498237,0.15523437,0.200698,9.872487,0.0,3.0543236E-4,1.5271618E-4,-49.800003,4.05,8.1,,,,,,,,,,,,,,,,,,
SENSOR,1789661121331,40851499498237,0.15493527,0.20458634,9.864711,0.0,3.0543236E-4,1.5271618E-4,-49.800003,4.05,8.1,,,,,,,,,,,,,,,,,,
SENSOR,1789661121332,40851519498237,0.15463616,0.20129621,9.867402,0.0,3.0543236E-4,1.5271618E-4,-49.800003,4.05,8.1,,,,,,,,,,,,,,,,,,
SENSOR,1789661121332,40851539498237,0.1576272,0.20428723,9.861719,0.0,3.0543236E-4,1.5271618E-4,-49.800003,4.05,8.1,,,,,,,,,,,,,,,,,,
SENSOR,1789661121332,40851559498237,0.15463616,0.20368902,9.867402,0.0,3.0543236E-4,1.5271618E-4,-49.800003,4.05,8.1,,,,,,,,,,,,,,,,,,
SENSOR,1789661121332,40851579498237,0.15643078,0.19980069,9.867402,0.0,3.0543236E-4,1.5271618E-4,-49.800003,4.05,8.1,,,,,,,,,,,,,,,,,,
SENSOR,1789661121346,40851604498237,0.15643078,0.19980069,9.867402,0.0,3.0543236E-4,1.5271618E-4,-49.800003,4.05,8.1,,,,,,,,,,,,,,,,,,
SENSOR,1789661121364,40851614498237,0.15643078,0.19980069,9.867402,0.0,3.0543236E-4,1.5271618E-4,-49.2,3.825,6.3750005,,,,,,,,,,,,,,,,,,
SENSOR,1789661121432,40851599498237,0.1576272,0.20219351,9.870394,0.0,3.0543236E-4,1.5271618E-4,-49.2,3.825,6.3750005,,,,,,,,,,,,,,,,,,
SENSOR,1789661121432,40851619498237,0.15343975,0.19950159,9.869795,0.0,3.0543236E-4,1.5271618E-4,-49.2,3.825,6.3750005,,,,,,,,,,,,,,,,,,
SENSOR,1789661121432,40851639498237,0.15074782,0.19890338,9.867402,0.0,3.0543236E-4,1.5271618E-4,-49.2,3.825,6.3750005,,,,,,,,,,,,,,,,,,
SENSOR,1789661121433,40851659498237,0.15643078,0.20189442,9.865009,0.0,3.0543236E-4,1.5271618E-4,-49.2,3.825,6.3750005,,,,,,,,,,,,,,,,,,
SENSOR,1789661121433,40851679498237,0.15583257,0.20608185,9.8727865,0.0,3.0543236E-4,1.5271618E-4,-49.2,3.825,6.3750005,,,,,,,,,,,,,,,,,,
SENSOR,1789661121442,40851704498237,0.15583257,0.20608185,9.8727865,0.0,3.0543236E-4,0.0,-49.2,3.825,6.3750005,,,,,,,,,,,,,,,,,,
SENSOR,1789661121468,40851714498237,0.15583257,0.20608185,9.8727865,0.0,3.0543236E-4,0.0,-48.750004,3.825,5.925,,,,,,,,,,,,,,,,,,
SENSOR,1789661121531,40851699498237,0.15672988,0.20398813,9.870094,0.0,3.0543236E-4,0.0,-48.750004,3.825,5.925,,,,,,,,,,,,,,,,,,
SENSOR,1789661121545,40851719498237,0.16091733,0.20368902,9.872487,0.0,3.0543236E-4,0.0,-48.750004,3.825,5.925,,,,,,,,,,,,,,,,,,
SENSOR,1789661121545,40851739498237,0.15672988,0.19830517,9.865309,0.0,3.0543236E-4,0.0,-48.750004,3.825,5.925,,,,,,,,,,,,,,,,,,
SENSOR,1789661121545,40851759498237,0.15284155,0.20189442,9.872188,0.0,3.0543236E-4,0.0,-48.750004,3.825,5.925,,,,,,,,,,,,,,,,,,
SENSOR,1789661121545,40851779498237,0.15702899,0.20309082,9.865907,0.0,3.0543236E-4,0.0,-48.750004,3.825,5.925,,,,,,,,,,,,,,,,,,
SENSOR,1789661121546,40851804498237,0.15702899,0.20309082,9.865907,0.0,3.0543236E-4,-6.108647E-4,-48.750004,3.825,5.925,,,,,,,,,,,,,,,,,,
SENSOR,1789661121563,40851814498237,0.15702899,0.20309082,9.865907,0.0,3.0543236E-4,-6.108647E-4,-49.350002,3.825,6.9750004,,,,,,,,,,,,,,,,,,
SENSOR,1789661121631,40851799498237,0.15314065,0.200698,9.859626,0.0,3.0543236E-4,-6.108647E-4,-49.350002,3.825,6.9750004,,,,,,,,,,,,,,,,,,
SENSOR,1789661121631,40851819498237,0.15134603,0.19770697,9.868897,0.0,3.0543236E-4,-6.108647E-4,-49.350002,3.825,6.9750004,,,,,,,,,,,,,,,,,,
SENSOR,1789661121631,40851839498237,0.15254244,0.20039889,9.868001,0.0,3.0543236E-4,-6.108647E-4,-49.350002,3.825,6.9750004,,,,,,,,,,,,,,,,,,
SENSOR,1789661121631,40851859498237,0.15224335,0.19980069,9.869496,0.0,3.0543236E-4,-6.108647E-4,-49.350002,3.825,6.9750004,,,,,,,,,,,,,,,,,,
SENSOR,1789661121631,40851879498237,0.15284155,0.2000998,9.871889,0.0,3.0543236E-4,-6.108647E-4,-49.350002,3.825,6.9750004,,,,,,,,,,,,,,,,,,
SENSOR,1789661121642,40851904498237,0.15284155,0.2000998,9.871889,0.0,3.0543236E-4,1.5271618E-4,-49.350002,3.825,6.9750004,,,,,,,,,,,,,,,,,,
SENSOR,1789661121667,40851914498237,0.15284155,0.2000998,9.871889,0.0,3.0543236E-4,1.5271618E-4,-49.125004,4.125,5.925,,,,,,,,,,,,,,,,,,
GNSS,1789661121682,,true,11.0554049,76.9271175,374.70001220703125,27.021,,,51,0,,,,,,,,,,,,,
SENSOR,1789661121731,40851899498237,0.15583257,0.20279172,9.865608,0.0,3.0543236E-4,1.5271618E-4,-49.125004,4.125,5.925,,,,,,,,,,,,,,,,,,
SENSOR,1789661121731,40851919498237,0.15523437,0.2015953,9.867402,0.0,3.0543236E-4,1.5271618E-4,-49.125004,4.125,5.925,,,,,,,,,,,,,,,,,,
SENSOR,1789661121731,40851939498237,0.15792629,0.19890338,9.862019,0.0,3.0543236E-4,1.5271618E-4,-49.125004,4.125,5.925,,,,,,,,,,,,,,,,,,
SENSOR,1789661121731,40851959498237,0.1585245,0.20428723,9.8632145,0.0,3.0543236E-4,1.5271618E-4,-49.125004,4.125,5.925,,,,,,,,,,,,,,,,,,
SENSOR,1789661121731,40851979498237,0.15433706,0.2000998,9.869795,0.0,3.0543236E-4,1.5271618E-4,-49.125004,4.125,5.925,,,,,,,,,,,,,,,,,,
SENSOR,1789661121747,40852004498237,0.15433706,0.2000998,9.869795,0.0,3.0543236E-4,1.5271618E-4,-49.125004,4.125,5.925,,,,,,,,,,,,,,,,,,
SENSOR,1789661121763,40852014498237,0.15433706,0.2000998,9.869795,0.0,3.0543236E-4,1.5271618E-4,-48.825,3.825,6.4500003,,,,,,,,,,,,,,,,,,
CELLULAR,1789661121793,,,,,,,,,,,,,,true,NR,4298047490,405,869,,75,403,634080,-106,NR_SS_RSRP,3,
SENSOR,1789661121831,40851999498237,0.1594218,0.20458634,9.865309,0.0,3.0543236E-4,1.5271618E-4,-48.825,3.825,6.4500003,,,,,,,,,,,,,,,,,,
SENSOR,1789661121831,40852019498237,0.16031912,0.19830517,9.865309,0.0,3.0543236E-4,1.5271618E-4,-48.825,3.825,6.4500003,,,,,,,,,,,,,,,,,,
SENSOR,1789661121832,40852039498237,0.16061822,0.2015953,9.867702,0.0,3.0543236E-4,1.5271618E-4,-48.825,3.825,6.4500003,,,,,,,,,,,,,,,,,,
SENSOR,1789661121832,40852059498237,0.15583257,0.2009971,9.868897,0.0,3.0543236E-4,1.5271618E-4,-48.825,3.825,6.4500003,,,,,,,,,,,,,,,,,,
SENSOR,1789661121832,40852079498237,0.15343975,0.20279172,9.865608,0.0,3.0543236E-4,1.5271618E-4,-48.825,3.825,6.4500003,,,,,,,,,,,,,,,,,,
SENSOR,1789661121842,40852104498237,0.15343975,0.20279172,9.865608,0.0,3.0543236E-4,1.5271618E-4,-48.825,3.825,6.4500003,,,,,,,,,,,,,,,,,,
SENSOR,1789661121867,40852114498237,0.15343975,0.20279172,9.865608,0.0,3.0543236E-4,1.5271618E-4,-49.800003,3.9,7.3500004,,,,,,,,,,,,,,,,,,
SENSOR,1789661121932,40852099498237,0.16002001,0.20219351,9.865009,0.0,3.0543236E-4,1.5271618E-4,-49.800003,3.9,7.3500004,,,,,,,,,,,,,,,,,,
SENSOR,1789661121932,40852119498237,0.1582254,0.20129621,9.868599,0.0,3.0543236E-4,1.5271618E-4,-49.800003,3.9,7.3500004,,,,,,,,,,,,,,,,,,
SENSOR,1789661121933,40852139498237,0.1585245,0.200698,9.868001,0.0,3.0543236E-4,1.5271618E-4,-49.800003,3.9,7.3500004,,,,,,,,,,,,,,,,,,
SENSOR,1789661121933,40852159498237,0.15553348,0.20249261,9.872487,0.0,3.0543236E-4,1.5271618E-4,-49.800003,3.9,7.3500004,,,,,,,,,,,,,,,,,,
SENSOR,1789661121933,40852179498237,0.15613168,0.20309082,9.867104,0.0,3.0543236E-4,1.5271618E-4,-49.800003,3.9,7.3500004,,,,,,,,,,,,,,,,,,
SENSOR,1789661121945,40852204498237,0.15613168,0.20309082,9.867104,0.0,3.0543236E-4,-4.5814854E-4,-49.800003,3.9,7.3500004,,,,,,,,,,,,,,,,,,
SENSOR,1789661121963,40852214498237,0.15613168,0.20309082,9.867104,0.0,3.0543236E-4,-4.5814854E-4,-50.025,3.7500002,7.5750003,,,,,,,,,,,,,,,,,,
SENSOR,1789661122032,40852199498237,0.15702899,0.20129621,9.865608,0.0,3.0543236E-4,-4.5814854E-4,-50.025,3.7500002,7.5750003,,,,,,,,,,,,,,,,,,
SENSOR,1789661122032,40852219498237,0.16061822,0.20338993,9.870394,0.0,3.0543236E-4,-4.5814854E-4,-50.025,3.7500002,7.5750003,,,,,,,,,,,,,,,,,,
SENSOR,1789661122032,40852239498237,0.15672988,0.20458634,9.8727865,0.0,3.0543236E-4,-4.5814854E-4,-50.025,3.7500002,7.5750003,,,,,,,,,,,,,,,,,,
SENSOR,1789661122032,40852259498237,0.15403795,0.20548365,9.868897,0.0,3.0543236E-4,-4.5814854E-4,-50.025,3.7500002,7.5750003,,,,,,,,,,,,,,,,,,
SENSOR,1789661122033,40852279498237,0.15672988,0.20398813,9.862916,0.0,3.0543236E-4,-4.5814854E-4,-50.025,3.7500002,7.5750003,,,,,,,,,,,,,,,,,,
SENSOR,1789661122042,40852304498237,0.15672988,0.20398813,9.862916,0.0,3.0543236E-4,-9.162971E-4,-50.025,3.7500002,7.5750003,,,,,,,,,,,,,,,,,,
SENSOR,1789661122068,40852314498237,0.15672988,0.20398813,9.862916,0.0,3.0543236E-4,-9.162971E-4,-49.425003,3.9750001,7.5750003,,,,,,,,,,,,,,,,,,
SENSOR,1789661122131,40852299498237,0.15643078,0.20249261,9.873384,0.0,3.0543236E-4,-9.162971E-4,-49.425003,3.9750001,7.5750003,,,,,,,,,,,,,,,,,,
SENSOR,1789661122131,40852319498237,0.15433706,0.2009971,9.871291,0.0,3.0543236E-4,-9.162971E-4,-49.425003,3.9750001,7.5750003,,,,,,,,,,,,,,,,,,
SENSOR,1789661122131,40852339498237,0.15972091,0.19980069,9.869496,0.0,3.0543236E-4,-9.162971E-4,-49.425003,3.9750001,7.5750003,,,,,,,,,,,,,,,,,,
SENSOR,1789661122131,40852359498237,0.1582254,0.2009971,9.8632145,0.0,3.0543236E-4,-9.162971E-4,-49.425003,3.9750001,7.5750003,,,,,,,,,,,,,,,,,,
SENSOR,1789661122131,40852379498237,0.15493527,0.20249261,9.867702,0.0,3.0543236E-4,-9.162971E-4,-49.425003,3.9750001,7.5750003,,,,,,,,,,,,,,,,,,
SENSOR,1789661122145,40852404498237,0.15493527,0.20249261,9.867702,-6.108647E-4,-3.0543236E-4,1.5271618E-4,-49.425003,3.9750001,7.5750003,,,,,,,,,,,,,,,,,,
SENSOR,1789661122163,40852414498237,0.15493527,0.20249261,9.867702,-6.108647E-4,-3.0543236E-4,1.5271618E-4,-49.425003,4.125,7.05,,,,,,,,,,,,,,,,,,
SENSOR,1789661122231,40852399498237,0.15672988,0.19800608,9.866804,-6.108647E-4,-3.0543236E-4,1.5271618E-4,-49.425003,4.125,7.05,,,,,,,,,,,,,,,,,,
SENSOR,1789661122231,40852419498237,0.1585245,0.20039889,9.870394,-6.108647E-4,-3.0543236E-4,1.5271618E-4,-49.425003,4.125,7.05,,,,,,,,,,,,,,,,,,
SENSOR,1789661122231,40852439498237,0.15553348,0.20428723,9.866206,-6.108647E-4,-3.0543236E-4,1.5271618E-4,-49.425003,4.125,7.05,,,,,,,,,,,,,,,,,,
SENSOR,1789661122232,40852459498237,0.16181463,0.20428723,9.873085,-6.108647E-4,-3.0543236E-4,1.5271618E-4,-49.425003,4.125,7.05,,,,,,,,,,,,,,,,,,
SENSOR,1789661122232,40852479498237,0.15672988,0.20338993,9.872188,-6.108647E-4,-3.0543236E-4,1.5271618E-4,-49.425003,4.125,7.05,,,,,,,,,,,,,,,,,,
SENSOR,1789661122250,40852504498237,0.15672988,0.20338993,9.872188,0.0,3.0543236E-4,1.5271618E-4,-49.425003,4.125,7.05,,,,,,,,,,,,,,,,,,
SENSOR,1789661122268,40852514498237,0.15672988,0.20338993,9.872188,0.0,3.0543236E-4,1.5271618E-4,-49.800003,3.9,6.6000004,,,,,,,,,,,,,,,,,,
SENSOR,1789661122331,40852499498237,0.1576272,0.20309082,9.870992,0.0,3.0543236E-4,1.5271618E-4,-49.800003,3.9,6.6000004,,,,,,,,,,,,,,,,,,
SENSOR,1789661122332,40852519498237,0.15343975,0.20039889,9.870394,0.0,3.0543236E-4,1.5271618E-4,-49.800003,3.9,6.6000004,,,,,,,,,,,,,,,,,,
SENSOR,1789661122332,40852539498237,0.15284155,0.19950159,9.865907,0.0,3.0543236E-4,1.5271618E-4,-49.800003,3.9,6.6000004,,,,,,,,,,,,,,,,,,
SENSOR,1789661122332,40852559498237,0.15702899,0.19471595,9.868599,0.0,3.0543236E-4,1.5271618E-4,-49.800003,3.9,6.6000004,,,,,,,,,,,,,,,,,,
SENSOR,1789661122332,40852579498237,0.16091733,0.19770697,9.869496,0.0,3.0543236E-4,1.5271618E-4,-49.800003,3.9,6.6000004,,,,,,,,,,,,,,,,,,
SENSOR,1789661122345,40852604498237,0.16091733,0.19770697,9.869496,0.0,3.0543236E-4,1.5271618E-4,-49.800003,3.9,6.6000004,,,,,,,,,,,,,,,,,,
SENSOR,1789661122363,40852614498237,0.16091733,0.19770697,9.869496,0.0,3.0543236E-4,1.5271618E-4,-49.65,3.7500002,7.3500004,,,,,,,,,,,,,,,,,,
SENSOR,1789661122431,40852599498237,0.15643078,0.20518455,9.869197,0.0,3.0543236E-4,1.5271618E-4,-49.65,3.7500002,7.3500004,,,,,,,,,,,,,,,,,,
SENSOR,1789661122431,40852619498237,0.15403795,0.20668006,9.868599,0.0,3.0543236E-4,1.5271618E-4,-49.65,3.7500002,7.3500004,,,,,,,,,,,,,,,,,,
SENSOR,1789661122431,40852639498237,0.15493527,0.200698,9.870394,0.0,3.0543236E-4,1.5271618E-4,-49.65,3.7500002,7.3500004,,,,,,,,,,,,,,,,,,
SENSOR,1789661122432,40852659498237,0.16002001,0.20189442,9.87159,0.0,3.0543236E-4,1.5271618E-4,-49.65,3.7500002,7.3500004,,,,,,,,,,,,,,,,,,
SENSOR,1789661122432,40852679498237,0.15314065,0.20398813,9.871889,0.0,3.0543236E-4,1.5271618E-4,-49.65,3.7500002,7.3500004,,,,,,,,,,,,,,,,,,
SENSOR,1789661122450,40852704498237,0.15314065,0.20398813,9.871889,0.0,1.5271618E-4,-9.162971E-4,-49.65,3.7500002,7.3500004,,,,,,,,,,,,,,,,,,
SENSOR,1789661122467,40852714498237,0.15314065,0.20398813,9.871889,0.0,1.5271618E-4,-9.162971E-4,-49.65,3.6000001,6.9750004,,,,,,,,,,,,,,,,,,
SENSOR,1789661122531,40852699498237,0.15403795,0.20338993,9.870992,0.0,1.5271618E-4,-9.162971E-4,-49.65,3.6000001,6.9750004,,,,,,,,,,,,,,,,,,
SENSOR,1789661122541,40852719498237,0.15583257,0.20279172,9.866206,0.0,1.5271618E-4,-9.162971E-4,-49.65,3.6000001,6.9750004,,,,,,,,,,,,,,,,,,
SENSOR,1789661122541,40852739498237,0.15643078,0.20338993,9.864411,0.0,1.5271618E-4,-9.162971E-4,-49.65,3.6000001,6.9750004,,,,,,,,,,,,,,,,,,
SENSOR,1789661122541,40852759498237,0.15284155,0.20309082,9.867402,0.0,1.5271618E-4,-9.162971E-4,-49.65,3.6000001,6.9750004,,,,,,,,,,,,,,,,,,
SENSOR,1789661122541,40852779498237,0.1576272,0.20428723,9.870692,0.0,1.5271618E-4,-9.162971E-4,-49.65,3.6000001,6.9750004,,,,,,,,,,,,,,,,,,
SENSOR,1789661122544,40852804498237,0.1576272,0.20428723,9.870692,0.0,-3.0543236E-4,-0.0010690133,-49.65,3.6000001,6.9750004,,,,,,,,,,,,,,,,,,
SENSOR,1789661122563,40852814498237,0.1576272,0.20428723,9.870692,0.0,-3.0543236E-4,-0.0010690133,-49.425003,3.9750001,6.525,,,,,,,,,,,,,,,,,,
SENSOR,1789661122631,40852799498237,0.15433706,0.20129621,9.866206,0.0,-3.0543236E-4,-0.0010690133,-49.425003,3.9750001,6.525,,,,,,,,,,,,,,,,,,
SENSOR,1789661122632,40852819498237,0.15732808,0.19830517,9.873085,0.0,-3.0543236E-4,-0.0010690133,-49.425003,3.9750001,6.525,,,,,,,,,,,,,,,,,,
SENSOR,1789661122632,40852839498237,0.15343975,0.19980069,9.867702,0.0,-3.0543236E-4,-0.0010690133,-49.425003,3.9750001,6.525,,,,,,,,,,,,,,,,,,
SENSOR,1789661122632,40852859498237,0.15702899,0.2000998,9.867702,0.0,-3.0543236E-4,-0.0010690133,-49.425003,3.9750001,6.525,,,,,,,,,,,,,,,,,,
SENSOR,1789661122632,40852879498237,0.15373886,0.20488544,9.8632145,0.0,-3.0543236E-4,-0.0010690133,-49.425003,3.9750001,6.525,,,,,,,,,,,,,,,,,,
SENSOR,1789661122648,40852904498237,0.15373886,0.20488544,9.8632145,0.0,-9.162971E-4,1.5271618E-4,-49.425003,3.9750001,6.525,,,,,,,,,,,,,,,,,,
SENSOR,1789661122668,40852914498237,0.15373886,0.20488544,9.8632145,0.0,-9.162971E-4,1.5271618E-4,-49.425003,3.9750001,7.05,,,,,,,,,,,,,,,,,,
SENSOR,1789661122731,40852899498237,0.15373886,0.20309082,9.868897,0.0,-9.162971E-4,1.5271618E-4,-49.425003,3.9750001,7.05,,,,,,,,,,,,,,,,,,
SENSOR,1789661122731,40852919498237,0.15553348,0.19950159,9.8727865,0.0,-9.162971E-4,1.5271618E-4,-49.425003,3.9750001,7.05,,,,,,,,,,,,,,,,,,
SENSOR,1789661122731,40852939498237,0.15732808,0.19950159,9.868001,0.0,-9.162971E-4,1.5271618E-4,-49.425003,3.9750001,7.05,,,,,,,,,,,,,,,,,,
SENSOR,1789661122731,40852959498237,0.15732808,0.20548365,9.865608,0.0,-9.162971E-4,1.5271618E-4,-49.425003,3.9750001,7.05,,,,,,,,,,,,,,,,,,
SENSOR,1789661122731,40852979498237,0.15343975,0.20189442,9.868897,0.0,-9.162971E-4,1.5271618E-4,-49.425003,3.9750001,7.05,,,,,,,,,,,,,,,,,,
SENSOR,1789661122745,40853004498237,0.15343975,0.20189442,9.868897,0.0,-3.0543236E-4,1.5271618E-4,-49.425003,3.9750001,7.05,,,,,,,,,,,,,,,,,,
SENSOR,1789661122763,40853014498237,0.15343975,0.20189442,9.868897,0.0,-3.0543236E-4,1.5271618E-4,-49.65,3.9,6.9750004,,,,,,,,,,,,,,,,,,
CELLULAR,1789661122812,,,,,,,,,,,,,,true,NR,4298047490,405,869,,75,403,634080,-106,NR_SS_RSRP,3,
SENSOR,1789661122831,40852999498237,0.15613168,0.20219351,9.870394,0.0,-3.0543236E-4,1.5271618E-4,-49.65,3.9,6.9750004,,,,,,,,,,,,,,,,,,
SENSOR,1789661122831,40853019498237,0.15643078,0.20488544,9.868599,0.0,-3.0543236E-4,1.5271618E-4,-49.65,3.9,6.9750004,,,,,,,,,,,,,,,,,,
SENSOR,1789661122831,40853039498237,0.15613168,0.20578274,9.87159,0.0,-3.0543236E-4,1.5271618E-4,-49.65,3.9,6.9750004,,,,,,,,,,,,,,,,,,
SENSOR,1789661122832,40853059498237,0.15732808,0.200698,9.868599,0.0,-3.0543236E-4,1.5271618E-4,-49.65,3.9,6.9750004,,,,,,,,,,,,,,,,,,
SENSOR,1789661122832,40853079498237,0.15463616,0.20249261,9.868897,0.0,-3.0543236E-4,1.5271618E-4,-49.65,3.9,6.9750004,,,,,,,,,,,,,,,,,,
SENSOR,1789661122849,40853104498237,0.15463616,0.20249261,9.868897,0.0,-7.635809E-4,1.5271618E-4,-49.65,3.9,6.9750004,,,,,,,,,,,,,,,,,,
SENSOR,1789661122867,40853114498237,0.15463616,0.20249261,9.868897,0.0,-7.635809E-4,1.5271618E-4,-49.800003,3.7500002,7.5000005,,,,,,,,,,,,,,,,,,
SENSOR,1789661122932,40853099498237,0.15583257,0.20279172,9.873684,0.0,-7.635809E-4,1.5271618E-4,-49.800003,3.7500002,7.5000005,,,,,,,,,,,,,,,,,,
SENSOR,1789661122933,40853119498237,0.1576272,0.19980069,9.868897,0.0,-7.635809E-4,1.5271618E-4,-49.800003,3.7500002,7.5000005,,,,,,,,,,,,,,,,,,
SENSOR,1789661122933,40853139498237,0.15643078,0.20129621,9.87458,0.0,-7.635809E-4,1.5271618E-4,-49.800003,3.7500002,7.5000005,,,,,,,,,,,,,,,,,,
SENSOR,1789661122933,40853159498237,0.15433706,0.19651055,9.866206,0.0,-7.635809E-4,1.5271618E-4,-49.800003,3.7500002,7.5000005,,,,,,,,,,,,,,,,,,
SENSOR,1789661122934,40853179498237,0.15523437,0.20368902,9.869197,0.0,-7.635809E-4,1.5271618E-4,-49.800003,3.7500002,7.5000005,,,,,,,,,,,,,,,,,,
SENSOR,1789661122945,40853204498237,0.15523437,0.20368902,9.869197,0.0,3.0543236E-4,1.5271618E-4,-49.800003,3.7500002,7.5000005,,,,,,,,,,,,,,,,,,
SENSOR,1789661122962,40853214498237,0.15523437,0.20368902,9.869197,0.0,3.0543236E-4,1.5271618E-4,-49.800003,3.6000001,6.525,,,,,,,,,,,,,,,,,,
SENSOR,1789661123032,40853199498237,0.15343975,0.20039889,9.8682995,0.0,3.0543236E-4,1.5271618E-4,-49.800003,3.6000001,6.525,,,,,,,,,,,,,,,,,,
SENSOR,1789661123032,40853219498237,0.15134603,0.20398813,9.866804,0.0,3.0543236E-4,1.5271618E-4,-49.800003,3.6000001,6.525,,,,,,,,,,,,,,,,,,
SENSOR,1789661123032,40853239498237,0.1582254,0.20309082,9.869496,0.0,3.0543236E-4,1.5271618E-4,-49.800003,3.6000001,6.525,,,,,,,,,,,,,,,,,,
SENSOR,1789661123032,40853259498237,0.15463616,0.20338993,9.8727865,0.0,3.0543236E-4,1.5271618E-4,-49.800003,3.6000001,6.525,,,,,,,,,,,,,,,,,,
SENSOR,1789661123032,40853279498237,0.1594218,0.20249261,9.870692,0.0,3.0543236E-4,1.5271618E-4,-49.800003,3.6000001,6.525,,,,,,,,,,,,,,,,,,
SENSOR,1789661123048,40853304498237,0.1594218,0.20249261,9.870692,0.0,3.0543236E-4,1.5271618E-4,-49.800003,3.6000001,6.525,,,,,,,,,,,,,,,,,,
SENSOR,1789661123066,40853314498237,0.1594218,0.20249261,9.870692,0.0,3.0543236E-4,1.5271618E-4,-49.350002,3.9,6.9750004,,,,,,,,,,,,,,,,,,
SENSOR,1789661123131,40853299498237,0.16091733,0.20338993,9.8682995,0.0,3.0543236E-4,1.5271618E-4,-49.350002,3.9,6.9750004,,,,,,,,,,,,,,,,,,
SENSOR,1789661123131,40853319498237,0.15732808,0.20219351,9.868897,0.0,3.0543236E-4,1.5271618E-4,-49.350002,3.9,6.9750004,,,,,,,,,,,,,,,,,,
SENSOR,1789661123131,40853339498237,0.15553348,0.20039889,9.872188,0.0,3.0543236E-4,1.5271618E-4,-49.350002,3.9,6.9750004,,,,,,,,,,,,,,,,,,
SENSOR,1789661123131,40853359498237,0.15613168,0.20338993,9.870992,0.0,3.0543236E-4,1.5271618E-4,-49.350002,3.9,6.9750004,,,,,,,,,,,,,,,,,,
SENSOR,1789661123131,40853379498237,0.15882361,0.20548365,9.870094,0.0,3.0543236E-4,1.5271618E-4,-49.350002,3.9,6.9750004,,,,,,,,,,,,,,,,,,
SENSOR,1789661123143,40853404498237,0.15882361,0.20548365,9.870094,0.0,3.0543236E-4,1.5271618E-4,-49.350002,3.9,6.9750004,,,,,,,,,,,,,,,,,,
SENSOR,1789661123162,40853414498237,0.15882361,0.20548365,9.870094,0.0,3.0543236E-4,1.5271618E-4,-49.500004,3.9750001,7.8750005,,,,,,,,,,,,,,,,,,
SENSOR,1789661123232,40853399498237,0.16061822,0.20279172,9.876077,0.0,3.0543236E-4,1.5271618E-4,-49.500004,3.9750001,7.8750005,,,,,,,,,,,,,,,,,,
SENSOR,1789661123233,40853419498237,0.15553348,0.2015953,9.867402,0.0,3.0543236E-4,1.5271618E-4,-49.500004,3.9750001,7.8750005,,,,,,,,,,,,,,,,,,
SENSOR,1789661123233,40853439498237,0.15403795,0.19920248,9.870394,0.0,3.0543236E-4,1.5271618E-4,-49.500004,3.9750001,7.8750005,,,,,,,,,,,,,,,,,,
SENSOR,1789661123233,40853459498237,0.15643078,0.19980069,9.868599,0.0,3.0543236E-4,1.5271618E-4,-49.500004,3.9750001,7.8750005,,,,,,,,,,,,,,,,,,
SENSOR,1789661123233,40853479498237,0.15972091,0.20279172,9.868897,0.0,3.0543236E-4,1.5271618E-4,-49.500004,3.9750001,7.8750005,,,,,,,,,,,,,,,,,,
SENSOR,1789661123249,40853504498237,0.15972091,0.20279172,9.868897,0.0,-9.162971E-4,1.5271618E-4,-49.500004,3.9750001,7.8750005,,,,,,,,,,,,,,,,,,
SENSOR,1789661123267,40853514498237,0.15972091,0.20279172,9.868897,0.0,-9.162971E-4,1.5271618E-4,-49.65,3.6000001,6.6000004,,,,,,,,,,,,,,,,,,
SENSOR,1789661123332,40853499498237,0.1582254,0.20877378,9.867104,0.0,-9.162971E-4,1.5271618E-4,-49.65,3.6000001,6.6000004,,,,,,,,,,,,,,,,,,
SENSOR,1789661123332,40853519498237,0.15493527,0.19860429,9.87159,0.0,-9.162971E-4,1.5271618E-4,-49.65,3.6000001,6.6000004,,,,,,,,,,,,,,,,,,
SENSOR,1789661123332,40853539498237,0.1591227,0.20309082,9.869496,0.0,-9.162971E-4,1.5271618E-4,-49.65,3.6000001,6.6000004,,,,,,,,,,,,,,,,,,
SENSOR,1789661123332,40853559498237,0.16061822,0.19651055,9.8682995,0.0,-9.162971E-4,1.5271618E-4,-49.65,3.6000001,6.6000004,,,,,,,,,,,,,,,,,,
SENSOR,1789661123333,40853579498237,0.15463616,0.20697916,9.8727865,0.0,-9.162971E-4,1.5271618E-4,-49.65,3.6000001,6.6000004,,,,,,,,,,,,,,,,,,
SENSOR,1789661123343,40853604498237,0.15463616,0.20697916,9.8727865,-3.0543236E-4,-6.108647E-4,1.5271618E-4,-49.65,3.6000001,6.6000004,,,,,,,,,,,,,,,,,,
SENSOR,1789661123370,40853614498237,0.15463616,0.20697916,9.8727865,-3.0543236E-4,-6.108647E-4,1.5271618E-4,-49.425003,3.9,6.9750004,,,,,,,,,,,,,,,,,,
SENSOR,1789661123431,40853599498237,0.15074782,0.20518455,9.870094,-3.0543236E-4,-6.108647E-4,1.5271618E-4,-49.425003,3.9,6.9750004,,,,,,,,,,,,,,,,,,
SENSOR,1789661123431,40853619498237,0.15583257,0.2000998,9.868001,-3.0543236E-4,-6.108647E-4,1.5271618E-4,-49.425003,3.9,6.9750004,,,,,,,,,,,,,,,,,,
SENSOR,1789661123431,40853639498237,0.15643078,0.19830517,9.873982,-3.0543236E-4,-6.108647E-4,1.5271618E-4,-49.425003,3.9,6.9750004,,,,,,,,,,,,,,,,,,
SENSOR,1789661123431,40853659498237,0.15523437,0.2000998,9.867402,-3.0543236E-4,-6.108647E-4,1.5271618E-4,-49.425003,3.9,6.9750004,,,,,,,,,,,,,,,,,,
SENSOR,1789661123431,40853679498237,0.15553348,0.20338993,9.864112,-3.0543236E-4,-6.108647E-4,1.5271618E-4,-49.425003,3.9,6.9750004,,,,,,,,,,,,,,,,,,
SENSOR,1789661123448,40853704498237,0.15553348,0.20338993,9.864112,0.0,3.0543236E-4,1.5271618E-4,-49.425003,3.9,6.9750004,,,,,,,,,,,,,,,,,,
SENSOR,1789661123467,40853714498237,0.15553348,0.20338993,9.864112,0.0,3.0543236E-4,1.5271618E-4,-49.65,3.6750002,7.8750005,,,,,,,,,,,,,,,,,,
SENSOR,1789661123533,40853699498237,0.16121642,0.19800608,9.867104,0.0,3.0543236E-4,1.5271618E-4,-49.65,3.6750002,7.8750005,,,,,,,,,,,,,,,,,,
SENSOR,1789661123548,40853719498237,0.15433706,0.20398813,9.873982,0.0,3.0543236E-4,1.5271618E-4,-49.65,3.6750002,7.8750005,,,,,,,,,,,,,,,,,,
SENSOR,1789661123548,40853739498237,0.15463616,0.19740787,9.8727865,0.0,3.0543236E-4,1.5271618E-4,-49.65,3.6750002,7.8750005,,,,,,,,,,,,,,,,,,
SENSOR,1789661123549,40853759498237,0.15523437,0.20727827,9.867402,0.0,3.0543236E-4,1.5271618E-4,-49.65,3.6750002,7.8750005,,,,,,,,,,,,,,,,,,
SENSOR,1789661123549,40853779498237,0.15732808,0.19860429,9.869197,0.0,3.0543236E-4,1.5271618E-4,-49.65,3.6750002,7.8750005,,,,,,,,,,,,,,,,,,
SENSOR,1789661123549,40853804498237,0.15732808,0.19860429,9.869197,0.0,-0.0,1.5271618E-4,-49.65,3.6750002,7.8750005,,,,,,,,,,,,,,,,,,
SENSOR,1789661123570,40853814498237,0.15732808,0.19860429,9.869197,0.0,-0.0,1.5271618E-4,-49.875004,3.45,7.8750005,,,,,,,,,,,,,,,,,,
SENSOR,1789661123633,40853799498237,0.15583257,0.20727827,9.870394,0.0,-0.0,1.5271618E-4,-49.875004,3.45,7.8750005,,,,,,,,,,,,,,,,,,
SENSOR,1789661123634,40853819498237,0.15523437,0.19471595,9.8682995,0.0,-0.0,1.5271618E-4,-49.875004,3.45,7.8750005,,,,,,,,,,,,,,,,,,
SENSOR,1789661123634,40853839498237,0.15972091,0.20578274,9.872188,0.0,-0.0,1.5271618E-4,-49.875004,3.45,7.8750005,,,,,,,,,,,,,,,,,,
SENSOR,1789661123634,40853859498237,0.15613168,0.19860429,9.873684,0.0,-0.0,1.5271618E-4,-49.875004,3.45,7.8750005,,,,,,,,,,,,,,,,,,
SENSOR,1789661123634,40853879498237,0.15523437,0.20697916,9.869795,0.0,-0.0,1.5271618E-4,-49.875004,3.45,7.8750005,,,,,,,,,,,,,,,,,,
SENSOR,1789661123648,40853904498237,0.15523437,0.20697916,9.869795,0.0,3.0543236E-4,1.5271618E-4,-49.875004,3.45,7.8750005,,,,,,,,,,,,,,,,,,
SENSOR,1789661123666,40853914498237,0.15523437,0.20697916,9.869795,0.0,3.0543236E-4,1.5271618E-4,-49.875004,4.05,7.8750005,,,,,,,,,,,,,,,,,,
GNSS,1789661123684,,true,11.0554049,76.9271175,374.70001220703125,27.021,,,52,0,,,,,,,,,,,,,
SENSOR,1789661123733,40853899498237,0.1585245,0.19531415,9.872487,0.0,3.0543236E-4,1.5271618E-4,-49.875004,4.05,7.8750005,,,,,,,,,,,,,,,,,,
SENSOR,1789661123734,40853919498237,0.15583257,0.2015953,9.874282,0.0,3.0543236E-4,1.5271618E-4,-49.875004,4.05,7.8750005,,,,,,,,,,,,,,,,,,
SENSOR,1789661123734,40853939498237,0.15702899,0.20458634,9.866505,0.0,3.0543236E-4,1.5271618E-4,-49.875004,4.05,7.8750005,,,,,,,,,,,,,,,,,,
SENSOR,1789661123734,40853959498237,0.15882361,0.19531415,9.867402,0.0,3.0543236E-4,1.5271618E-4,-49.875004,4.05,7.8750005,,,,,,,,,,,,,,,,,,
SENSOR,1789661123734,40853979498237,0.15613168,0.20608185,9.871889,0.0,3.0543236E-4,1.5271618E-4,-49.875004,4.05,7.8750005,,,,,,,,,,,,,,,,,,
SENSOR,1789661123744,40854004498237,0.15613168,0.20608185,9.871889,0.0,-0.0,1.5271618E-4,-49.875004,4.05,7.8750005,,,,,,,,,,,,,,,,,,
SENSOR,1789661123769,40854014498237,0.15613168,0.20608185,9.871889,0.0,-0.0,1.5271618E-4,-49.800003,4.275,6.9750004,,,,,,,,,,,,,,,,,,
SENSOR,1789661123832,40853999498237,0.15433706,0.20338993,9.867402,0.0,-0.0,1.5271618E-4,-49.800003,4.275,6.9750004,,,,,,,,,,,,,,,,,,
SENSOR,1789661123832,40854019498237,0.15433706,0.20518455,9.864711,0.0,-0.0,1.5271618E-4,-49.800003,4.275,6.9750004,,,,,,,,,,,,,,,,,,
SENSOR,1789661123833,40854039498237,0.15643078,0.19800608,9.869496,0.0,-0.0,1.5271618E-4,-49.800003,4.275,6.9750004,,,,,,,,,,,,,,,,,,
SENSOR,1789661123833,40854059498237,0.15553348,0.19890338,9.864112,0.0,-0.0,1.5271618E-4,-49.800003,4.275,6.9750004,,,,,,,,,,,,,,,,,,
SENSOR,1789661123833,40854079498237,0.16031912,0.19950159,9.870394,0.0,-0.0,1.5271618E-4,-49.800003,4.275,6.9750004,,,,,,,,,,,,,,,,,,
CELLULAR,1789661123833,,,,,,,,,,,,,,true,NR,4298047490,405,869,,75,403,634080,-106,NR_SS_RSRP,3,
SENSOR,1789661123858,40854104498237,0.16031912,0.19950159,9.870394,-0.0012217294,3.0543236E-4,1.5271618E-4,-49.800003,4.275,6.9750004,,,,,,,,,,,,,,,,,,
SENSOR,1789661123864,40854114498237,0.16031912,0.19950159,9.870394,-0.0012217294,3.0543236E-4,1.5271618E-4,-49.65,3.6000001,7.1250005,,,,,,,,,,,,,,,,,,
SENSOR,1789661123932,40854099498237,0.1591227,0.20309082,9.871291,-0.0012217294,3.0543236E-4,1.5271618E-4,-49.65,3.6000001,7.1250005,,,,,,,,,,,,,,,,,,
SENSOR,1789661123932,40854119498237,0.15493527,0.20309082,9.870094,-0.0012217294,3.0543236E-4,1.5271618E-4,-49.65,3.6000001,7.1250005,,,,,,,,,,,,,,,,,,
SENSOR,1789661123932,40854139498237,0.15194423,0.200698,9.865309,-0.0012217294,3.0543236E-4,1.5271618E-4,-49.65,3.6000001,7.1250005,,,,,,,,,,,,,,,,,,
SENSOR,1789661123933,40854159498237,0.15643078,0.2009971,9.876675,-0.0012217294,3.0543236E-4,1.5271618E-4,-49.65,3.6000001,7.1250005,,,,,,,,,,,,,,,,,,
SENSOR,1789661123933,40854179498237,0.15523437,0.20518455,9.869496,-0.0012217294,3.0543236E-4,1.5271618E-4,-49.65,3.6000001,7.1250005,,,,,,,,,,,,,,,,,,
SENSOR,1789661123942,40854204498237,0.15523437,0.20518455,9.869496,0.0,0.0,1.5271618E-4,-49.65,3.6000001,7.1250005,,,,,,,,,,,,,,,,,,
SENSOR,1789661123969,40854214498237,0.15523437,0.20518455,9.869496,0.0,0.0,1.5271618E-4,-49.725002,3.7500002,7.1250005,,,,,,,,,,,,,,,,,,
SENSOR,1789661124032,40854199498237,0.1576272,0.2015953,9.869197,0.0,0.0,1.5271618E-4,-49.725002,3.7500002,7.1250005,,,,,,,,,,,,,,,,,,
SENSOR,1789661124032,40854219498237,0.15732808,0.19830517,9.867402,0.0,0.0,1.5271618E-4,-49.725002,3.7500002,7.1250005,,,,,,,,,,,,,,,,,,
SENSOR,1789661124032,40854239498237,0.15523437,0.20129621,9.870992,0.0,0.0,1.5271618E-4,-49.725002,3.7500002,7.1250005,,,,,,,,,,,,,,,,,,
SENSOR,1789661124032,40854259498237,0.15702899,0.2009971,9.8682995,0.0,0.0,1.5271618E-4,-49.725002,3.7500002,7.1250005,,,,,,,,,,,,,,,,,,
SENSOR,1789661124032,40854279498237,0.15732808,0.19980069,9.865009,0.0,0.0,1.5271618E-4,-49.725002,3.7500002,7.1250005,,,,,,,,,,,,,,,,,,
SENSOR,1789661124048,40854304498237,0.15732808,0.19980069,9.865009,-4.5814854E-4,-1.5271618E-4,1.5271618E-4,-49.725002,3.7500002,7.1250005,,,,,,,,,,,,,,,,,,
SENSOR,1789661124064,40854314498237,0.15732808,0.19980069,9.865009,-4.5814854E-4,-1.5271618E-4,1.5271618E-4,-49.050003,4.125,7.1250005,,,,,,,,,,,,,,,,,,
SENSOR,1789661124132,40854299498237,0.15583257,0.20458634,9.873384,-4.5814854E-4,-1.5271618E-4,1.5271618E-4,-49.050003,4.125,7.1250005,,,,,,,,,,,,,,,,,,
SENSOR,1789661124132,40854319498237,0.15613168,0.20309082,9.87159,-4.5814854E-4,-1.5271618E-4,1.5271618E-4,-49.050003,4.125,7.1250005,,,,,,,,,,,,,,,,,,
SENSOR,1789661124132,40854339498237,0.15643078,0.19950159,9.875478,-4.5814854E-4,-1.5271618E-4,1.5271618E-4,-49.050003,4.125,7.1250005,,,,,,,,,,,,,,,,,,
SENSOR,1789661124132,40854359498237,0.15792629,0.20279172,9.8727865,-4.5814854E-4,-1.5271618E-4,1.5271618E-4,-49.050003,4.125,7.1250005,,,,,,,,,,,,,,,,,,
SENSOR,1789661124132,40854379498237,0.16091733,0.20189442,9.876077,-4.5814854E-4,-1.5271618E-4,1.5271618E-4,-49.050003,4.125,7.1250005,,,,,,,,,,,,,,,,,,
SENSOR,1789661124143,40854404498237,0.16091733,0.20189442,9.876077,0.0,-9.162971E-4,1.5271618E-4,-49.050003,4.125,7.1250005,,,,,,,,,,,,,,,,,,
SENSOR,1789661124168,40854414498237,0.16091733,0.20189442,9.876077,0.0,-9.162971E-4,1.5271618E-4,-49.2,3.3750002,6.9750004,,,,,,,,,,,,,,,,,,
SENSOR,1789661124233,40854399498237,0.15882361,0.2009971,9.866505,0.0,-9.162971E-4,1.5271618E-4,-49.2,3.3750002,6.9750004,,,,,,,,,,,,,,,,,,
SENSOR,1789661124233,40854419498237,0.15643078,0.19950159,9.873684,0.0,-9.162971E-4,1.5271618E-4,-49.2,3.3750002,6.9750004,,,,,,,,,,,,,,,,,,
SENSOR,1789661124234,40854439498237,0.15553348,0.19800608,9.868599,0.0,-9.162971E-4,1.5271618E-4,-49.2,3.3750002,6.9750004,,,,,,,,,,,,,,,,,,
SENSOR,1789661124234,40854459498237,0.15553348,0.20129621,9.869795,0.0,-9.162971E-4,1.5271618E-4,-49.2,3.3750002,6.9750004,,,,,,,,,,,,,,,,,,
SENSOR,1789661124234,40854479498237,0.1582254,0.19322042,9.869496,0.0,-9.162971E-4,1.5271618E-4,-49.2,3.3750002,6.9750004,,,,,,,,,,,,,,,,,,
SENSOR,1789661124246,40854504498237,0.1582254,0.19322042,9.869496,0.0,-9.162971E-4,-4.5814854E-4,-49.2,3.3750002,6.9750004,,,,,,,,,,,,,,,,,,
SENSOR,1789661124263,40854514498237,0.1582254,0.19322042,9.869496,0.0,-9.162971E-4,-4.5814854E-4,-49.95,3.6750002,7.3500004,,,,,,,,,,,,,,,,,,
SENSOR,1789661124332,40854499498237,0.15403795,0.20488544,9.866505,0.0,-9.162971E-4,-4.5814854E-4,-49.95,3.6750002,7.3500004,,,,,,,,,,,,,,,,,,
SENSOR,1789661124333,40854519498237,0.15373886,0.19860429,9.868599,0.0,-9.162971E-4,-4.5814854E-4,-49.95,3.6750002,7.3500004,,,,,,,,,,,,,,,,,,
SENSOR,1789661124333,40854539498237,0.15523437,0.20518455,9.870992,0.0,-9.162971E-4,-4.5814854E-4,-49.95,3.6750002,7.3500004,,,,,,,,,,,,,,,,,,
SENSOR,1789661124333,40854559498237,0.1594218,0.20039889,9.873085,0.0,-9.162971E-4,-4.5814854E-4,-49.95,3.6750002,7.3500004,,,,,,,,,,,,,,,,,,
SENSOR,1789661124333,40854579498237,0.15284155,0.20279172,9.870094,0.0,-9.162971E-4,-4.5814854E-4,-49.95,3.6750002,7.3500004,,,,,,,,,,,,,,,,,,
SENSOR,1789661124342,40854604498237,0.15284155,0.20279172,9.870094,-0.0,-9.162971E-4,1.5271618E-4,-49.95,3.6750002,7.3500004,,,,,,,,,,,,,,,,,,
SENSOR,1789661124368,40854614498237,0.15284155,0.20279172,9.870094,-0.0,-9.162971E-4,1.5271618E-4,-50.100002,3.7500002,7.8750005,,,,,,,,,,,,,,,,,,
SENSOR,1789661124431,40854599498237,0.15463616,0.20398813,9.867702,-0.0,-9.162971E-4,1.5271618E-4,-50.100002,3.7500002,7.8750005,,,,,,,,,,,,,,,,,,
SENSOR,1789661124432,40854619498237,0.15314065,0.19591236,9.870992,-0.0,-9.162971E-4,1.5271618E-4,-50.100002,3.7500002,7.8750005,,,,,,,,,,,,,,,,,,
SENSOR,1789661124432,40854639498237,0.15672988,0.20219351,9.869496,-0.0,-9.162971E-4,1.5271618E-4,-50.100002,3.7500002,7.8750005,,,,,,,,,,,,,,,,,,
SENSOR,1789661124432,40854659498237,0.15523437,0.20129621,9.869496,-0.0,-9.162971E-4,1.5271618E-4,-50.100002,3.7500002,7.8750005,,,,,,,,,,,,,,,,,,
SENSOR,1789661124433,40854679498237,0.1585245,0.20309082,9.865309,-0.0,-9.162971E-4,1.5271618E-4,-50.100002,3.7500002,7.8750005,,,,,,,,,,,,,,,,,,
SENSOR,1789661124447,40854704498237,0.1585245,0.20309082,9.865309,0.0,3.0543236E-4,1.5271618E-4,-50.100002,3.7500002,7.8750005,,,,,,,,,,,,,,,,,,
SENSOR,1789661124464,40854714498237,0.1585245,0.20309082,9.865309,0.0,3.0543236E-4,1.5271618E-4,-50.250004,3.6750002,7.425,,,,,,,,,,,,,,,,,,
SENSOR,1789661124533,40854699498237,0.1585245,0.20368902,9.867402,0.0,3.0543236E-4,1.5271618E-4,-50.250004,3.6750002,7.425,,,,,,,,,,,,,,,,,,
SENSOR,1789661124533,40854719498237,0.15583257,0.2000998,9.866505,0.0,3.0543236E-4,1.5271618E-4,-50.250004,3.6750002,7.425,,,,,,,,,,,,,,,,,,
SENSOR,1789661124533,40854739498237,0.15972091,0.20279172,9.873684,0.0,3.0543236E-4,1.5271618E-4,-50.250004,3.6750002,7.425,,,,,,,,,,,,,,,,,,
SENSOR,1789661124534,40854759498237,0.15403795,0.20129621,9.873982,0.0,3.0543236E-4,1.5271618E-4,-50.250004,3.6750002,7.425,,,,,,,,,,,,,,,,,,
SENSOR,1789661124534,40854779498237,0.15583257,0.20338993,9.866505,0.0,3.0543236E-4,1.5271618E-4,-50.250004,3.6750002,7.425,,,,,,,,,,,,,,,,,,
SENSOR,1789661124541,40854804498237,0.15583257,0.20338993,9.866505,0.0,3.0543236E-4,1.5271618E-4,-50.250004,3.6750002,7.425,,,,,,,,,,,,,,,,,,
SENSOR,1789661124567,40854814498237,0.15583257,0.20338993,9.866505,0.0,3.0543236E-4,1.5271618E-4,-49.2,4.2000003,7.5750003,,,,,,,,,,,,,,,,,,
SENSOR,1789661124632,40854799498237,0.15403795,0.19980069,9.8727865,0.0,3.0543236E-4,1.5271618E-4,-49.2,4.2000003,7.5750003,,,,,,,,,,,,,,,,,,
SENSOR,1789661124632,40854819498237,0.15672988,0.20219351,9.868599,0.0,3.0543236E-4,1.5271618E-4,-49.2,4.2000003,7.5750003,,,,,,,,,,,,,,,,,,
SENSOR,1789661124632,40854839498237,0.15463616,0.20189442,9.867402,0.0,3.0543236E-4,1.5271618E-4,-49.2,4.2000003,7.5750003,,,,,,,,,,,,,,,,,,
SENSOR,1789661124632,40854859498237,0.15254244,0.200698,9.865907,0.0,3.0543236E-4,1.5271618E-4,-49.2,4.2000003,7.5750003,,,,,,,,,,,,,,,,,,
SENSOR,1789661124632,40854879498237,0.1576272,0.20338993,9.87159,0.0,3.0543236E-4,1.5271618E-4,-49.2,4.2000003,7.5750003,,,,,,,,,,,,,,,,,,
SENSOR,1789661124647,40854904498237,0.1576272,0.20338993,9.87159,0.0,-9.162971E-4,1.5271618E-4,-49.2,4.2000003,7.5750003,,,,,,,,,,,,,,,,,,
SENSOR,1789661124663,40854914498237,0.1576272,0.20338993,9.87159,0.0,-9.162971E-4,1.5271618E-4,-49.425003,3.9,7.05,,,,,,,,,,,,,,,,,,
GNSS,1789661124685,,true,11.0554049,76.9271175,374.70001220703125,27.021,,,53,0,,,,,,,,,,,,,
SENSOR,1789661124731,40854899498237,0.15433706,0.2015953,9.870394,0.0,-9.162971E-4,1.5271618E-4,-49.425003,3.9,7.05,,,,,,,,,,,,,,,,,,
SENSOR,1789661124732,40854919498237,0.15643078,0.19800608,9.867402,0.0,-9.162971E-4,1.5271618E-4,-49.425003,3.9,7.05,,,,,,,,,,,,,,,,,,
SENSOR,1789661124732,40854939498237,0.15284155,0.19770697,9.862318,0.0,-9.162971E-4,1.5271618E-4,-49.425003,3.9,7.05,,,,,,,,,,,,,,,,,,
SENSOR,1789661124733,40854959498237,0.1576272,0.20279172,9.867104,0.0,-9.162971E-4,1.5271618E-4,-49.425003,3.9,7.05,,,,,,,,,,,,,,,,,,
SENSOR,1789661124733,40854979498237,0.15732808,0.20368902,9.869795,0.0,-9.162971E-4,1.5271618E-4,-49.425003,3.9,7.05,,,,,,,,,,,,,,,,,,
SENSOR,1789661124740,40855004498237,0.15732808,0.20368902,9.869795,0.0,3.0543236E-4,1.5271618E-4,-49.425003,3.9,7.05,,,,,,,,,,,,,,,,,,
SENSOR,1789661124767,40855014498237,0.15732808,0.20368902,9.869795,0.0,3.0543236E-4,1.5271618E-4,-50.025,3.9750001,7.8750005,,,,,,,,,,,,,,,,,,
SENSOR,1789661124831,40854999498237,0.15882361,0.20129621,9.872487,0.0,3.0543236E-4,1.5271618E-4,-50.025,3.9750001,7.8750005,,,,,,,,,,,,,,,,,,
SENSOR,1789661124831,40855019498237,0.15194423,0.20458634,9.873085,0.0,3.0543236E-4,1.5271618E-4,-50.025,3.9750001,7.8750005,,,,,,,,,,,,,,,,,,
SENSOR,1789661124831,40855039498237,0.1585245,0.20129621,9.867402,0.0,3.0543236E-4,1.5271618E-4,-50.025,3.9750001,7.8750005,,,,,,,,,,,,,,,,,,
SENSOR,1789661124831,40855059498237,0.15882361,0.20189442,9.869795,0.0,3.0543236E-4,1.5271618E-4,-50.025,3.9750001,7.8750005,,,,,,,,,,,,,,,,,,
SENSOR,1789661124831,40855079498237,0.1576272,0.2000998,9.869795,0.0,3.0543236E-4,1.5271618E-4,-50.025,3.9750001,7.8750005,,,,,,,,,,,,,,,,,,
SENSOR,1789661124845,40855104498237,0.1576272,0.2000998,9.869795,0.0,-4.5814854E-4,1.5271618E-4,-50.025,3.9750001,7.8750005,,,,,,,,,,,,,,,,,,
CELLULAR,1789661124858,,,,,,,,,,,,,,true,NR,4298047490,405,869,,75,403,634080,-106,NR_SS_RSRP,3,
SENSOR,1789661124868,40855114498237,0.1576272,0.2000998,9.869795,0.0,-4.5814854E-4,1.5271618E-4,-48.975002,4.05,5.925,,,,,,,,,,,,,,,,,,
SENSOR,1789661124931,40855099498237,0.16061822,0.20338993,9.870094,0.0,-4.5814854E-4,1.5271618E-4,-48.975002,4.05,5.925,,,,,,,,,,,,,,,,,,
SENSOR,1789661124931,40855119498237,0.15583257,0.19920248,9.869496,0.0,-4.5814854E-4,1.5271618E-4,-48.975002,4.05,5.925,,,,,,,,,,,,,,,,,,
SENSOR,1789661124931,40855139498237,0.15523437,0.20129621,9.8682995,0.0,-4.5814854E-4,1.5271618E-4,-48.975002,4.05,5.925,,,,,,,,,,,,,,,,,,
SENSOR,1789661124931,40855159498237,0.15792629,0.2000998,9.87488,0.0,-4.5814854E-4,1.5271618E-4,-48.975002,4.05,5.925,,,,,,,,,,,,,,,,,,
SENSOR,1789661124931,40855179498237,0.1582254,0.20279172,9.871889,0.0,-4.5814854E-4,1.5271618E-4,-48.975002,4.05,5.925,,,,,,,,,,,,,,,,,,
SENSOR,1789661124949,40855204498237,0.1582254,0.20279172,9.871889,-0.0010690133,1.5271618E-4,1.5271618E-4,-48.975002,4.05,5.925,,,,,,,,,,,,,,,,,,
SENSOR,1789661124967,40855214498237,0.1582254,0.20279172,9.871889,-0.0010690133,1.5271618E-4,1.5271618E-4,-49.125004,4.125,5.925,,,,,,,,,,,,,,,,,,
SENSOR,1789661125031,40855199498237,0.15284155,0.20428723,9.862916,-0.0010690133,1.5271618E-4,1.5271618E-4,-49.125004,4.125,5.925,,,,,,,,,,,,,,,,,,
SENSOR,1789661125031,40855219498237,0.15463616,0.20279172,9.869197,-0.0010690133,1.5271618E-4,1.5271618E-4,-49.125004,4.125,5.925,,,,,,,,,,,,,,,,,,
SENSOR,1789661125031,40855239498237,0.15433706,0.20877378,9.873085,-0.0010690133,1.5271618E-4,1.5271618E-4,-49.125004,4.125,5.925,,,,,,,,,,,,,,,,,,
SENSOR,1789661125031,40855259498237,0.15493527,0.19890338,9.870992,-0.0010690133,1.5271618E-4,1.5271618E-4,-49.125004,4.125,5.925,,,,,,,,,,,,,,,,,,
SENSOR,1789661125031,40855279498237,0.15882361,0.20309082,9.867402,-0.0010690133,1.5271618E-4,1.5271618E-4,-49.125004,4.125,5.925,,,,,,,,,,,,,,,,,,
SENSOR,1789661125045,40855304498237,0.15882361,0.20309082,9.867402,0.0,1.5271618E-4,-0.0010690133,-49.125004,4.125,5.925,,,,,,,,,,,,,,,,,,
SENSOR,1789661125062,40855314498237,0.15882361,0.20309082,9.867402,0.0,1.5271618E-4,-0.0010690133,-48.0,4.05,3.6000001,,,,,,,,,,,,,,,,,,
SENSOR,1789661125132,40855299498237,0.15702899,0.20039889,9.866505,0.0,1.5271618E-4,-0.0010690133,-48.0,4.05,3.6000001,,,,,,,,,,,,,,,,,,
SENSOR,1789661125132,40855319498237,0.15672988,0.20458634,9.873085,0.0,1.5271618E-4,-0.0010690133,-48.0,4.05,3.6000001,,,,,,,,,,,,,,,,,,
SENSOR,1789661125132,40855339498237,0.15433706,0.20548365,9.869197,0.0,1.5271618E-4,-0.0010690133,-48.0,4.05,3.6000001,,,,,,,,,,,,,,,,,,
SENSOR,1789661125132,40855359498237,0.16031912,0.20338993,9.875478,0.0,1.5271618E-4,-0.0010690133,-48.0,4.05,3.6000001,,,,,,,,,,,,,,,,,,
SENSOR,1789661125132,40855379498237,0.15254244,0.20548365,9.871889,0.0,1.5271618E-4,-0.0010690133,-48.0,4.05,3.6000001,,,,,,,,,,,,,,,,,,
SENSOR,1789661125149,40855404498237,0.15254244,0.20548365,9.871889,0.0,1.5271618E-4,-9.162971E-4,-48.0,4.05,3.6000001,,,,,,,,,,,,,,,,,,
SENSOR,1789661125166,40855414498237,0.15254244,0.20548365,9.871889,0.0,1.5271618E-4,-9.162971E-4,-48.975002,4.2000003,5.3250003,,,,,,,,,,,,,,,,,,
SENSOR,1789661125231,40855399498237,0.16151553,0.20189442,9.864112,0.0,1.5271618E-4,-9.162971E-4,-48.975002,4.2000003,5.3250003,,,,,,,,,,,,,,,,,,
SENSOR,1789661125231,40855419498237,0.15433706,0.20219351,9.87159,0.0,1.5271618E-4,-9.162971E-4,-48.975002,4.2000003,5.3250003,,,,,,,,,,,,,,,,,,
SENSOR,1789661125231,40855439498237,0.15672988,0.20338993,9.867702,0.0,1.5271618E-4,-9.162971E-4,-48.975002,4.2000003,5.3250003,,,,,,,,,,,,,,,,,,
SENSOR,1789661125231,40855459498237,0.1576272,0.20338993,9.870094,0.0,1.5271618E-4,-9.162971E-4,-48.975002,4.2000003,5.3250003,,,,,,,,,,,,,,,,,,
SENSOR,1789661125231,40855479498237,0.16002001,0.2015953,9.873384,0.0,1.5271618E-4,-9.162971E-4,-48.975002,4.2000003,5.3250003,,,,,,,,,,,,,,,,,,
SENSOR,1789661125244,40855504498237,0.16002001,0.2015953,9.873384,0.0,-6.108647E-4,1.5271618E-4,-48.975002,4.2000003,5.3250003,,,,,,,,,,,,,,,,,,
SENSOR,1789661125261,40855514498237,0.16002001,0.2015953,9.873384,0.0,-6.108647E-4,1.5271618E-4,-49.275,3.525,6.7500005,,,,,,,,,,,,,,,,,,
SENSOR,1789661125331,40855499498237,0.16301104,0.20488544,9.873982,0.0,-6.108647E-4,1.5271618E-4,-49.275,3.525,6.7500005,,,,,,,,,,,,,,,,,,
SENSOR,1789661125331,40855519498237,0.15672988,0.18843478,9.893126,0.0,-6.108647E-4,1.5271618E-4,-49.275,3.525,6.7500005,,,,,,,,,,,,,,,,,,
SENSOR,1789661125331,40855539498237,0.15194423,0.23150559,9.8524475,0.0,-6.108647E-4,1.5271618E-4,-49.275,3.525,6.7500005,,,,,,,,,,,,,,,,,,
SENSOR,1789661125331,40855559498237,0.16121642,0.18215363,9.863514,0.0,-6.108647E-4,1.5271618E-4,-49.275,3.525,6.7500005,,,,,,,,,,,,,,,,,,
SENSOR,1789661125332,40855579498237,0.15882361,0.21565314,9.870394,0.0,-6.108647E-4,1.5271618E-4,-49.275,3.525,6.7500005,,,,,,,,,,,,,,,,,,
SENSOR,1789661125349,40855604498237,0.15882361,0.21565314,9.870394,0.0,1.5271618E-4,1.5271618E-4,-49.275,3.525,6.7500005,,,,,,,,,,,,,,,,,,
SENSOR,1789661125366,40855614498237,0.15882361,0.21565314,9.870394,0.0,1.5271618E-4,1.5271618E-4,-49.425003,4.2000003,7.275,,,,,,,,,,,,,,,,,,
SENSOR,1789661125431,40855599498237,0.15613168,0.1905285,9.875179,0.0,1.5271618E-4,1.5271618E-4,-49.425003,4.2000003,7.275,,,,,,,,,,,,,,,,,,
SENSOR,1789661125431,40855619498237,0.15373886,0.20368902,9.873085,0.0,1.5271618E-4,1.5271618E-4,-49.425003,4.2000003,7.275,,,,,,,,,,,,,,,,,,
SENSOR,1789661125431,40855639498237,0.1591227,0.20309082,9.873085,0.0,1.5271618E-4,1.5271618E-4,-49.425003,4.2000003,7.275,,,,,,,,,,,,,,,,,,
SENSOR,1789661125431,40855659498237,0.1591227,0.19950159,9.87159,0.0,1.5271618E-4,1.5271618E-4,-49.425003,4.2000003,7.275,,,,,,,,,,,,,,,,,,
SENSOR,1789661125432,40855679498237,0.15194423,0.20578274,9.868001,0.0,1.5271618E-4,1.5271618E-4,-49.425003,4.2000003,7.275,,,,,,,,,,,,,,,,,,
SENSOR,1789661125445,40855704498237,0.15194423,0.20578274,9.868001,4.5814854E-4,-6.108647E-4,1.5271618E-4,-49.425003,4.2000003,7.275,,,,,,,,,,,,,,,,,,
SENSOR,1789661125462,40855714498237,0.15194423,0.20578274,9.868001,4.5814854E-4,-6.108647E-4,1.5271618E-4,-49.425003,3.825,5.175,,,,,,,,,,,,,,,,,,
SENSOR,1789661125531,40855699498237,0.15702899,0.19531415,9.868001,4.5814854E-4,-6.108647E-4,1.5271618E-4,-49.425003,3.825,5.175,,,,,,,,,,,,,,,,,,
SENSOR,1789661125531,40855719498237,0.1576272,0.2108675,9.869795,4.5814854E-4,-6.108647E-4,1.5271618E-4,-49.425003,3.825,5.175,,,,,,,,,,,,,,,,,,
SENSOR,1789661125531,40855739498237,0.16061822,0.19172491,9.866206,4.5814854E-4,-6.108647E-4,1.5271618E-4,-49.425003,3.825,5.175,,,,,,,,,,,,,,,,,,
SENSOR,1789661125532,40855759498237,0.15523437,0.20967108,9.87458,4.5814854E-4,-6.108647E-4,1.5271618E-4,-49.425003,3.825,5.175,,,,,,,,,,,,,,,,,,
SENSOR,1789661125532,40855779498237,0.15373886,0.2000998,9.870992,4.5814854E-4,-6.108647E-4,1.5271618E-4,-49.425003,3.825,5.175,,,,,,,,,,,,,,,,,,
SENSOR,1789661125548,40855804498237,0.15373886,0.2000998,9.870992,0.0,1.5271618E-4,-0.0010690133,-49.425003,3.825,5.175,,,,,,,,,,,,,,,,,,
SENSOR,1789661125566,40855814498237,0.15373886,0.2000998,9.870992,0.0,1.5271618E-4,-0.0010690133,-49.350002,3.6000001,6.15,,,,,,,,,,,,,,,,,,
SENSOR,1789661125631,40855799498237,0.15224335,0.20967108,9.866505,0.0,1.5271618E-4,-0.0010690133,-49.350002,3.6000001,6.15,,,,,,,,,,,,,,,,,,
SENSOR,1789661125631,40855819498237,0.1576272,0.19830517,9.866206,0.0,1.5271618E-4,-0.0010690133,-49.350002,3.6000001,6.15,,,,,,,,,,,,,,,,,,
SENSOR,1789661125631,40855839498237,0.1585245,0.20757736,9.864711,0.0,1.5271618E-4,-0.0010690133,-49.350002,3.6000001,6.15,,,,,,,,,,,,,,,,,,
SENSOR,1789661125631,40855859498237,0.15403795,0.20338993,9.865907,0.0,1.5271618E-4,-0.0010690133,-49.350002,3.6000001,6.15,,,,,,,,,,,,,,,,,,
SENSOR,1789661125631,40855879498237,0.15493527,0.20039889,9.867402,0.0,1.5271618E-4,-0.0010690133,-49.350002,3.6000001,6.15,,,,,,,,,,,,,,,,,,
SENSOR,1789661125644,40855904498237,0.15493527,0.20039889,9.867402,0.0,1.5271618E-4,1.5271618E-4,-49.350002,3.6000001,6.15,,,,,,,,,,,,,,,,,,
SENSOR,1789661125661,40855914498237,0.15493527,0.20039889,9.867402,0.0,1.5271618E-4,1.5271618E-4,-48.9,4.05,6.2250004,,,,,,,,,,,,,,,,,,
GNSS,1789661125690,,true,11.0554049,76.9271175,374.70001220703125,27.021,,,53,0,,,,,,,,,,,,,
GNSS,1789661125782,,true,11.05533727,76.92723889,311.5296630859375,19.40318,0.33,191.8,53,0,,,,,,,,,,,,,
SENSOR,1789661125732,40855899498237,0.15583257,0.20189442,9.873085,0.0,1.5271618E-4,1.5271618E-4,-48.9,4.05,6.2250004,,,,,,,,,,,,,,,,,,
SENSOR,1789661125732,40855919498237,0.15433706,0.19890338,9.865907,0.0,1.5271618E-4,1.5271618E-4,-48.9,4.05,6.2250004,,,,,,,,,,,,,,,,,,
SENSOR,1789661125732,40855939498237,0.15702899,0.20458634,9.867402,0.0,1.5271618E-4,1.5271618E-4,-48.9,4.05,6.2250004,,,,,,,,,,,,,,,,,,
SENSOR,1789661125732,40855959498237,0.15732808,0.19860429,9.872487,0.0,1.5271618E-4,1.5271618E-4,-48.9,4.05,6.2250004,,,,,,,,,,,,,,,,,,
SENSOR,1789661125732,40855979498237,0.15583257,0.20279172,9.866206,0.0,1.5271618E-4,1.5271618E-4,-48.9,4.05,6.2250004,,,,,,,,,,,,,,,,,,
SENSOR,1789661125747,40856004498237,0.15583257,0.20279172,9.866206,0.0,1.5271618E-4,1.5271618E-4,-48.9,4.05,6.2250004,,,,,,,,,,,,,,,,,,
SENSOR,1789661125765,40856014498237,0.15583257,0.20279172,9.866206,0.0,1.5271618E-4,1.5271618E-4,-48.600002,4.05,5.3250003,,,,,,,,,,,,,,,,,,
SENSOR,1789661125830,40855999498237,0.15254244,0.20309082,9.865309,0.0,1.5271618E-4,1.5271618E-4,-48.600002,4.05,5.3250003,,,,,,,,,,,,,,,,,,
SENSOR,1789661125830,40856019498237,0.15254244,0.20548365,9.865309,0.0,1.5271618E-4,1.5271618E-4,-48.600002,4.05,5.3250003,,,,,,,,,,,,,,,,,,
SENSOR,1789661125830,40856039498237,0.1576272,0.19680966,9.870394,0.0,1.5271618E-4,1.5271618E-4,-48.600002,4.05,5.3250003,,,,,,,,,,,,,,,,,,
SENSOR,1789661125830,40856059498237,0.15792629,0.19980069,9.867702,0.0,1.5271618E-4,1.5271618E-4,-48.600002,4.05,5.3250003,,,,,,,,,,,,,,,,,,
SENSOR,1789661125830,40856079498237,0.15343975,0.20219351,9.866206,0.0,1.5271618E-4,1.5271618E-4,-48.600002,4.05,5.3250003,,,,,,,,,,,,,,,,,,
SENSOR,1789661125842,40856104498237,0.15343975,0.20219351,9.866206,0.0,1.5271618E-4,1.5271618E-4,-48.600002,4.05,5.3250003,,,,,,,,,,,,,,,,,,
CELLULAR,1789661125868,,,,,,,,,,,,,,true,NR,4298047490,405,869,,75,403,634080,-106,NR_SS_RSRP,3,
SENSOR,1789661125877,40856114498237,0.15343975,0.20219351,9.866206,0.0,1.5271618E-4,1.5271618E-4,-48.0,4.05,4.125,,,,,,,,,,,,,,,,,,
SENSOR,1789661125930,40856099498237,0.15104693,0.20129621,9.873684,0.0,1.5271618E-4,1.5271618E-4,-48.0,4.05,4.125,,,,,,,,,,,,,,,,,,
SENSOR,1789661125930,40856119498237,0.15732808,0.20309082,9.873085,0.0,1.5271618E-4,1.5271618E-4,-48.0,4.05,4.125,,,,,,,,,,,,,,,,,,
SENSOR,1789661125930,40856139498237,0.15882361,0.19950159,9.872188,0.0,1.5271618E-4,1.5271618E-4,-48.0,4.05,4.125,,,,,,,,,,,,,,,,,,
SENSOR,1789661125930,40856159498237,0.15792629,0.20488544,9.868897,0.0,1.5271618E-4,1.5271618E-4,-48.0,4.05,4.125,,,,,,,,,,,,,,,,,,
SENSOR,1789661125930,40856179498237,0.15403795,0.19920248,9.865608,0.0,1.5271618E-4,1.5271618E-4,-48.0,4.05,4.125,,,,,,,,,,,,,,,,,,
SENSOR,1789661125947,40856204498237,0.15403795,0.19920248,9.865608,0.0,1.5271618E-4,1.5271618E-4,-48.0,4.05,4.125,,,,,,,,,,,,,,,,,,
SENSOR,1789661125964,40856214498237,0.15403795,0.19920248,9.865608,0.0,1.5271618E-4,1.5271618E-4,-48.375004,3.9750001,4.5750003,,,,,,,,,,,,,,,,,,
SENSOR,1789661126031,40856199498237,0.15613168,0.20309082,9.867402,0.0,1.5271618E-4,1.5271618E-4,-48.375004,3.9750001,4.5750003,,,,,,,,,,,,,,,,,,
SENSOR,1789661126031,40856219498237,0.15792629,0.19860429,9.864112,0.0,1.5271618E-4,1.5271618E-4,-48.375004,3.9750001,4.5750003,,,,,,,,,,,,,,,,,,
SENSOR,1789661126031,40856239498237,0.15702899,0.20518455,9.872487,0.0,1.5271618E-4,1.5271618E-4,-48.375004,3.9750001,4.5750003,,,,,,,,,,,,,,,,,,
SENSOR,1789661126031,40856259498237,0.15403795,0.20309082,9.864411,0.0,1.5271618E-4,1.5271618E-4,-48.375004,3.9750001,4.5750003,,,,,,,,,,,,,,,,,,
SENSOR,1789661126031,40856279498237,0.15403795,0.20279172,9.872487,0.0,1.5271618E-4,1.5271618E-4,-48.375004,3.9750001,4.5750003,,,,,,,,,,,,,,,,,,
SENSOR,1789661126042,40856304498237,0.15403795,0.20279172,9.872487,0.0,1.5271618E-4,-7.635809E-4,-48.375004,3.9750001,4.5750003,,,,,,,,,,,,,,,,,,
SENSOR,1789661126068,40856314498237,0.15403795,0.20279172,9.872487,0.0,1.5271618E-4,-7.635809E-4,-48.9,4.275,5.55,,,,,,,,,,,,,,,,,,
SENSOR,1789661126130,40856299498237,0.15403795,0.2009971,9.866804,0.0,1.5271618E-4,-7.635809E-4,-48.9,4.275,5.55,,,,,,,,,,,,,,,,,,
SENSOR,1789661126130,40856319498237,0.15613168,0.20398813,9.8727865,0.0,1.5271618E-4,-7.635809E-4,-48.9,4.275,5.55,,,,,,,,,,,,,,,,,,
SENSOR,1789661126131,40856339498237,0.1591227,0.2009971,9.870692,0.0,1.5271618E-4,-7.635809E-4,-48.9,4.275,5.55,,,,,,,,,,,,,,,,,,
SENSOR,1789661126131,40856359498237,0.1582254,0.20279172,9.869197,0.0,1.5271618E-4,-7.635809E-4,-48.9,4.275,5.55,,,,,,,,,,,,,,,,,,
SENSOR,1789661126131,40856379498237,0.15732808,0.20428723,9.869795,0.0,1.5271618E-4,-7.635809E-4,-48.9,4.275,5.55,,,,,,,,,,,,,,,,,,
SENSOR,1789661126146,40856404498237,0.15732808,0.20428723,9.869795,0.0,1.5271618E-4,1.5271618E-4,-48.9,4.275,5.55,,,,,,,,,,,,,,,,,,
SENSOR,1789661126164,40856414498237,0.15732808,0.20428723,9.869795,0.0,1.5271618E-4,1.5271618E-4,-47.550003,3.825,3.9,,,,,,,,,,,,,,,,,,
SENSOR,1789661126230,40856399498237,0.15643078,0.20428723,9.87458,0.0,1.5271618E-4,1.5271618E-4,-47.550003,3.825,3.9,,,,,,,,,,,,,,,,,,
SENSOR,1789661126230,40856419498237,0.1591227,0.19920248,9.870394,0.0,1.5271618E-4,1.5271618E-4,-47.550003,3.825,3.9,,,,,,,,,,,,,,,,,,
SENSOR,1789661126230,40856439498237,0.1576272,0.20129621,9.867402,0.0,1.5271618E-4,1.5271618E-4,-47.550003,3.825,3.9,,,,,,,,,,,,,,,,,,
SENSOR,1789661126230,40856459498237,0.16301104,0.19860429,9.8727865,0.0,1.5271618E-4,1.5271618E-4,-47.550003,3.825,3.9,,,,,,,,,,,,,,,,,,
SENSOR,1789661126230,40856479498237,0.15792629,0.20219351,9.873085,0.0,1.5271618E-4,1.5271618E-4,-47.550003,3.825,3.9,,,,,,,,,,,,,,,,,,
SENSOR,1789661126242,40856504498237,0.15792629,0.20219351,9.873085,0.0,-7.635809E-4,1.5271618E-4,-47.550003,3.825,3.9,,,,,,,,,,,,,,,,,,
SENSOR,1789661126269,40856514498237,0.15792629,0.20219351,9.873085,0.0,-7.635809E-4,1.5271618E-4,-48.300003,3.7500002,4.9500003,,,,,,,,,,,,,,,,,,
SENSOR,1789661126332,40856499498237,0.15314065,0.20338993,9.871889,0.0,-7.635809E-4,1.5271618E-4,-48.300003,3.7500002,4.9500003,,,,,,,,,,,,,,,,,,
SENSOR,1789661126332,40856519498237,0.15702899,0.20518455,9.870692,0.0,-7.635809E-4,1.5271618E-4,-48.300003,3.7500002,4.9500003,,,,,,,,,,,,,,,,,,
SENSOR,1789661126332,40856539498237,0.15433706,0.19770697,9.870394,0.0,-7.635809E-4,1.5271618E-4,-48.300003,3.7500002,4.9500003,,,,,,,,,,,,,,,,,,
SENSOR,1789661126332,40856559498237,0.15583257,0.20129621,9.873085,0.0,-7.635809E-4,1.5271618E-4,-48.300003,3.7500002,4.9500003,,,,,,,,,,,,,,,,,,
SENSOR,1789661126332,40856579498237,0.15553348,0.20518455,9.868897,0.0,-7.635809E-4,1.5271618E-4,-48.300003,3.7500002,4.9500003,,,,,,,,,,,,,,,,,,
SENSOR,1789661126346,40856604498237,0.15553348,0.20518455,9.868897,-7.635809E-4,1.5271618E-4,-6.108647E-4,-48.300003,3.7500002,4.9500003,,,,,,,,,,,,,,,,,,
SENSOR,1789661126364,40856614498237,0.15553348,0.20518455,9.868897,-7.635809E-4,1.5271618E-4,-6.108647E-4,-49.575,3.3750002,6.675,,,,,,,,,,,,,,,,,,
SENSOR,1789661126431,40856599498237,0.15224335,0.20309082,9.868001,-7.635809E-4,1.5271618E-4,-6.108647E-4,-49.575,3.3750002,6.675,,,,,,,,,,,,,,,,,,
SENSOR,1789661126432,40856619498237,0.15343975,0.2000998,9.869197,-7.635809E-4,1.5271618E-4,-6.108647E-4,-49.575,3.3750002,6.675,,,,,,,,,,,,,,,,,,
SENSOR,1789661126432,40856639498237,0.14895321,0.200698,9.872188,-7.635809E-4,1.5271618E-4,-6.108647E-4,-49.575,3.3750002,6.675,,,,,,,,,,,,,,,,,,
SENSOR,1789661126432,40856659498237,0.1582254,0.20189442,9.865907,-7.635809E-4,1.5271618E-4,-6.108647E-4,-49.575,3.3750002,6.675,,,,,,,,,,,,,,,,,,
SENSOR,1789661126432,40856679498237,0.15343975,0.2009971,9.867104,-7.635809E-4,1.5271618E-4,-6.108647E-4,-49.575,3.3750002,6.675,,,,,,,,,,,,,,,,,,
SENSOR,1789661126442,40856704498237,0.15343975,0.2009971,9.867104,0.0,1.5271618E-4,1.5271618E-4,-49.575,3.3750002,6.675,,,,,,,,,,,,,,,,,,
SENSOR,1789661126469,40856714498237,0.15343975,0.2009971,9.867104,0.0,1.5271618E-4,1.5271618E-4,-49.275,4.125,6.2250004,,,,,,,,,,,,,,,,,,
SENSOR,1789661126530,40856699498237,0.1576272,0.20309082,9.870692,0.0,1.5271618E-4,1.5271618E-4,-49.275,4.125,6.2250004,,,,,,,,,,,,,,,,,,
SENSOR,1789661126531,40856719498237,0.15613168,0.2009971,9.87817,0.0,1.5271618E-4,1.5271618E-4,-49.275,4.125,6.2250004,,,,,,,,,,,,,,,,,,
SENSOR,1789661126531,40856739498237,0.16031912,0.20428723,9.875179,0.0,1.5271618E-4,1.5271618E-4,-49.275,4.125,6.2250004,,,,,,,,,,,,,,,,,,
SENSOR,1789661126531,40856759498237,0.1585245,0.20249261,9.869496,0.0,1.5271618E-4,1.5271618E-4,-49.275,4.125,6.2250004,,,,,,,,,,,,,,,,,,
SENSOR,1789661126531,40856779498237,0.15493527,0.19950159,9.862617,0.0,1.5271618E-4,1.5271618E-4,-49.275,4.125,6.2250004,,,,,,,,,,,,,,,,,,
SENSOR,1789661126546,40856804498237,0.15493527,0.19950159,9.862617,0.0,1.5271618E-4,1.5271618E-4,-49.275,4.125,6.2250004,,,,,,,,,,,,,,,,,,
SENSOR,1789661126564,40856814498237,0.15493527,0.19950159,9.862617,0.0,1.5271618E-4,1.5271618E-4,-49.2,3.9,6.9,,,,,,,,,,,,,,,,,,
SENSOR,1789661126631,40856799498237,0.15672988,0.20249261,9.873085,0.0,1.5271618E-4,1.5271618E-4,-49.2,3.9,6.9,,,,,,,,,,,,,,,,,,
SENSOR,1789661126631,40856819498237,0.1576272,0.20249261,9.866505,0.0,1.5271618E-4,1.5271618E-4,-49.2,3.9,6.9,,,,,,,,,,,,,,,,,,
SENSOR,1789661126631,40856839498237,0.15672988,0.19860429,9.877273,0.0,1.5271618E-4,1.5271618E-4,-49.2,3.9,6.9,,,,,,,,,,,,,,,,,,
SENSOR,1789661126632,40856859498237,0.15643078,0.20249261,9.870094,0.0,1.5271618E-4,1.5271618E-4,-49.2,3.9,6.9,,,,,,,,,,,,,,,,,,
SENSOR,1789661126632,40856879498237,0.15672988,0.20458634,9.87159,0.0,1.5271618E-4,1.5271618E-4,-49.2,3.9,6.9,,,,,,,,,,,,,,,,,,
SENSOR,1789661126642,40856904498237,0.15672988,0.20458634,9.87159,0.0,1.5271618E-4,1.5271618E-4,-49.2,3.9,6.9,,,,,,,,,,,,,,,,,,
SENSOR,1789661126668,40856914498237,0.15672988,0.20458634,9.87159,0.0,1.5271618E-4,1.5271618E-4,-49.500004,4.2000003,8.400001,,,,,,,,,,,,,,,,,,
GNSS,1789661126680,,true,11.05533727,76.92723889,311.5296630859375,19.40318,0.33,191.8,55,13,,,,,,,,,,,,,
GNSS,1789661126779,,true,11.05535069,76.92706502,346.8836669921875,12.035707,0.51,191.8,55,13,,,,,,,,,,,,,
SENSOR,1789661126731,40856899498237,0.15493527,0.20488544,9.872487,0.0,1.5271618E-4,1.5271618E-4,-49.500004,4.2000003,8.400001,,,,,,,,,,,,,,,,,,
SENSOR,1789661126731,40856919498237,0.1585245,0.2015953,9.87159,0.0,1.5271618E-4,1.5271618E-4,-49.500004,4.2000003,8.400001,,,,,,,,,,,,,,,,,,
SENSOR,1789661126732,40856939498237,0.15882361,0.20129621,9.869795,0.0,1.5271618E-4,1.5271618E-4,-49.500004,4.2000003,8.400001,,,,,,,,,,,,,,,,,,
SENSOR,1789661126732,40856959498237,0.15493527,0.20488544,9.870094,0.0,1.5271618E-4,1.5271618E-4,-49.500004,4.2000003,8.400001,,,,,,,,,,,,,,,,,,
SENSOR,1789661126732,40856979498237,0.15493527,0.19980069,9.865907,0.0,1.5271618E-4,1.5271618E-4,-49.500004,4.2000003,8.400001,,,,,,,,,,,,,,,,,,
SENSOR,1789661126746,40857004498237,0.15493527,0.19980069,9.865907,0.0,1.5271618E-4,1.5271618E-4,-49.500004,4.2000003,8.400001,,,,,,,,,,,,,,,,,,
SENSOR,1789661126763,40857014498237,0.15493527,0.19980069,9.865907,0.0,1.5271618E-4,1.5271618E-4,-48.975002,3.9750001,5.7000003,,,,,,,,,,,,,,,,,,
SENSOR,1789661126831,40856999498237,0.15523437,0.20039889,9.875777,0.0,1.5271618E-4,1.5271618E-4,-48.975002,3.9750001,5.7000003,,,,,,,,,,,,,,,,,,
SENSOR,1789661126831,40857019498237,0.15672988,0.20368902,9.870094,0.0,1.5271618E-4,1.5271618E-4,-48.975002,3.9750001,5.7000003,,,,,,,,,,,,,,,,,,
SENSOR,1789661126831,40857039498237,0.15613168,0.20398813,9.865009,0.0,1.5271618E-4,1.5271618E-4,-48.975002,3.9750001,5.7000003,,,,,,,,,,,,,,,,,,
SENSOR,1789661126831,40857059498237,0.15314065,0.20458634,9.872188,0.0,1.5271618E-4,1.5271618E-4,-48.975002,3.9750001,5.7000003,,,,,,,,,,,,,,,,,,
SENSOR,1789661126831,40857079498237,0.15433706,0.20368902,9.873384,0.0,1.5271618E-4,1.5271618E-4,-48.975002,3.9750001,5.7000003,,,,,,,,,,,,,,,,,,
SENSOR,1789661126841,40857104498237,0.15433706,0.20368902,9.873384,0.0,1.5271618E-4,1.5271618E-4,-48.975002,3.9750001,5.7000003,,,,,,,,,,,,,,,,,,
SENSOR,1789661126868,40857114498237,0.15433706,0.20368902,9.873384,0.0,1.5271618E-4,1.5271618E-4,-49.050003,3.825,6.3750005,,,,,,,,,,,,,,,,,,
CELLULAR,1789661126877,,,,,,,,,,,,,,true,NR,4298047490,405,869,,75,403,634080,-106,NR_SS_RSRP,3,
SENSOR,1789661126930,40857099498237,0.15044872,0.20249261,9.870992,0.0,1.5271618E-4,1.5271618E-4,-49.050003,3.825,6.3750005,,,,,,,,,,,,,,,,,,
SENSOR,1789661126930,40857119498237,0.1585245,0.20428723,9.864411,0.0,1.5271618E-4,1.5271618E-4,-49.050003,3.825,6.3750005,,,,,,,,,,,,,,,,,,
SENSOR,1789661126931,40857139498237,0.15373886,0.20219351,9.871291,0.0,1.5271618E-4,1.5271618E-4,-49.050003,3.825,6.3750005,,,,,,,,,,,,,,,,,,
SENSOR,1789661126931,40857159498237,0.15433706,0.20249261,9.865907,0.0,1.5271618E-4,1.5271618E-4,-49.050003,3.825,6.3750005,,,,,,,,,,,,,,,,,,
SENSOR,1789661126931,40857179498237,0.15194423,0.200698,9.867402,0.0,1.5271618E-4,1.5271618E-4,-49.050003,3.825,6.3750005,,,,,,,,,,,,,,,,,,
SENSOR,1789661126945,40857204498237,0.15194423,0.200698,9.867402,-6.108647E-4,1.5271618E-4,1.5271618E-4,-49.050003,3.825,6.3750005,,,,,,,,,,,,,,,,,,
SENSOR,1789661126963,40857214498237,0.15194423,0.200698,9.867402,-6.108647E-4,1.5271618E-4,1.5271618E-4,-49.050003,4.275,5.55,,,,,,,,,,,,,,,,,,
SENSOR,1789661127031,40857199498237,0.15882361,0.20129621,9.870692,-6.108647E-4,1.5271618E-4,1.5271618E-4,-49.050003,4.275,5.55,,,,,,,,,,,,,,,,,,
SENSOR,1789661127031,40857219498237,0.15403795,0.20338993,9.868599,-6.108647E-4,1.5271618E-4,1.5271618E-4,-49.050003,4.275,5.55,,,,,,,,,,,,,,,,,,
SENSOR,1789661127031,40857239498237,0.15373886,0.20279172,9.870692,-6.108647E-4,1.5271618E-4,1.5271618E-4,-49.050003,4.275,5.55,,,,,,,,,,,,,,,,,,
SENSOR,1789661127032,40857259498237,0.1591227,0.19830517,9.871291,-6.108647E-4,1.5271618E-4,1.5271618E-4,-49.050003,4.275,5.55,,,,,,,,,,,,,,,,,,
SENSOR,1789661127032,40857279498237,0.15493527,0.20368902,9.873982,-6.108647E-4,1.5271618E-4,1.5271618E-4,-49.050003,4.275,5.55,,,,,,,,,,,,,,,,,,
SENSOR,1789661127042,40857304498237,0.15493527,0.20368902,9.873982,0.0,-0.0010690133,1.5271618E-4,-49.050003,4.275,5.55,,,,,,,,,,,,,,,,,,
SENSOR,1789661127069,40857314498237,0.15493527,0.20368902,9.873982,0.0,-0.0010690133,1.5271618E-4,-49.125004,3.9750001,5.3250003,,,,,,,,,,,,,,,,,,
SENSOR,1789661127131,40857299498237,0.15643078,0.20309082,9.870992,0.0,-0.0010690133,1.5271618E-4,-49.125004,3.9750001,5.3250003,,,,,,,,,,,,,,,,,,
SENSOR,1789661127131,40857319498237,0.15463616,0.20219351,9.873085,0.0,-0.0010690133,1.5271618E-4,-49.125004,3.9750001,5.3250003,,,,,,,,,,,,,,,,,,
SENSOR,1789661127132,40857339498237,0.15523437,0.20279172,9.869496,0.0,-0.0010690133,1.5271618E-4,-49.125004,3.9750001,5.3250003,,,,,,,,,,,,,,,,,,
SENSOR,1789661127132,40857359498237,0.1585245,0.20189442,9.869795,0.0,-0.0010690133,1.5271618E-4,-49.125004,3.9750001,5.3250003,,,,,,,,,,,,,,,,,,
SENSOR,1789661127132,40857379498237,0.16211374,0.19740787,9.872487,0.0,-0.0010690133,1.5271618E-4,-49.125004,3.9750001,5.3250003,,,,,,,,,,,,,,,,,,
SENSOR,1789661127145,40857404498237,0.16211374,0.19740787,9.872487,0.0,1.5271618E-4,-4.5814854E-4,-49.125004,3.9750001,5.3250003,,,,,,,,,,,,,,,,,,
SENSOR,1789661127163,40857414498237,0.16211374,0.19740787,9.872487,0.0,1.5271618E-4,-4.5814854E-4,-48.750004,3.9,6.6000004,,,,,,,,,,,,,,,,,,
SENSOR,1789661127230,40857399498237,0.1582254,0.2009971,9.870094,0.0,1.5271618E-4,-4.5814854E-4,-48.750004,3.9,6.6000004,,,,,,,,,,,,,,,,,,
SENSOR,1789661127231,40857419498237,0.15672988,0.20249261,9.873085,0.0,1.5271618E-4,-4.5814854E-4,-48.750004,3.9,6.6000004,,,,,,,,,,,,,,,,,,
SENSOR,1789661127231,40857439498237,0.15613168,0.20039889,9.861719,0.0,1.5271618E-4,-4.5814854E-4,-48.750004,3.9,6.6000004,,,,,,,,,,,,,,,,,,
SENSOR,1789661127231,40857459498237,0.15463616,0.19800608,9.872487,0.0,1.5271618E-4,-4.5814854E-4,-48.750004,3.9,6.6000004,,,,,,,,,,,,,,,,,,
SENSOR,1789661127231,40857479498237,0.15553348,0.2009971,9.867104,0.0,1.5271618E-4,-4.5814854E-4,-48.750004,3.9,6.6000004,,,,,,,,,,,,,,,,,,
SENSOR,1789661127240,40857504498237,0.15553348,0.2009971,9.867104,-0.0010690133,1.5271618E-4,1.5271618E-4,-48.750004,3.9,6.6000004,,,,,,,,,,,,,,,,,,
SENSOR,1789661127267,40857514498237,0.15553348,0.2009971,9.867104,-0.0010690133,1.5271618E-4,1.5271618E-4,-49.350002,3.825,6.525,,,,,,,,,,,,,,,,,,
SENSOR,1789661127330,40857499498237,0.15194423,0.20309082,9.866206,-0.0010690133,1.5271618E-4,1.5271618E-4,-49.350002,3.825,6.525,,,,,,,,,,,,,,,,,,
SENSOR,1789661127331,40857519498237,0.15493527,0.19770697,9.870394,-0.0010690133,1.5271618E-4,1.5271618E-4,-49.350002,3.825,6.525,,,,,,,,,,,,,,,,,,
SENSOR,1789661127332,40857539498237,0.15792629,0.20578274,9.866505,-0.0010690133,1.5271618E-4,1.5271618E-4,-49.350002,3.825,6.525,,,,,,,,,,,,,,,,,,
SENSOR,1789661127332,40857559498237,0.1585245,0.20428723,9.870094,-0.0010690133,1.5271618E-4,1.5271618E-4,-49.350002,3.825,6.525,,,,,,,,,,,,,,,,,,
SENSOR,1789661127332,40857579498237,0.15194423,0.20428723,9.87159,-0.0010690133,1.5271618E-4,1.5271618E-4,-49.350002,3.825,6.525,,,,,,,,,,,,,,,,,,
SENSOR,1789661127345,40857604498237,0.15194423,0.20428723,9.87159,0.0,1.5271618E-4,1.5271618E-4,-49.350002,3.825,6.525,,,,,,,,,,,,,,,,,,
SENSOR,1789661127363,40857614498237,0.15194423,0.20428723,9.87159,0.0,1.5271618E-4,1.5271618E-4,-48.750004,3.525,5.4,,,,,,,,,,,,,,,,,,
SENSOR,1789661127431,40857599498237,0.15433706,0.19561325,9.873684,0.0,1.5271618E-4,1.5271618E-4,-48.750004,3.525,5.4,,,,,,,,,,,,,,,,,,
SENSOR,1789661127431,40857619498237,0.16061822,0.19920248,9.8727865,0.0,1.5271618E-4,1.5271618E-4,-48.750004,3.525,5.4,,,,,,,,,,,,,,,,,,
SENSOR,1789661127431,40857639498237,0.15732808,0.19980069,9.866505,0.0,1.5271618E-4,1.5271618E-4,-48.750004,3.525,5.4,,,,,,,,,,,,,,,,,,
SENSOR,1789661127431,40857659498237,0.1576272,0.20279172,9.869197,0.0,1.5271618E-4,1.5271618E-4,-48.750004,3.525,5.4,,,,,,,,,,,,,,,,,,
SENSOR,1789661127431,40857679498237,0.15613168,0.20279172,9.869197,0.0,1.5271618E-4,1.5271618E-4,-48.750004,3.525,5.4,,,,,,,,,,,,,,,,,,
SENSOR,1789661127450,40857704498237,0.15613168,0.20279172,9.869197,0.0,1.5271618E-4,-0.0010690133,-48.750004,3.525,5.4,,,,,,,,,,,,,,,,,,
SENSOR,1789661127466,40857714498237,0.15613168,0.20279172,9.869197,0.0,1.5271618E-4,-0.0010690133,-48.9,4.275,6.0750003,,,,,,,,,,,,,,,,,,
SENSOR,1789661127531,40857699498237,0.15224335,0.20428723,9.87159,0.0,1.5271618E-4,-0.0010690133,-48.9,4.275,6.0750003,,,,,,,,,,,,,,,,,,
SENSOR,1789661127531,40857719498237,0.15672988,0.20039889,9.871291,0.0,1.5271618E-4,-0.0010690133,-48.9,4.275,6.0750003,,,,,,,,,,,,,,,,,,
SENSOR,1789661127531,40857739498237,0.15732808,0.20638095,9.8682995,0.0,1.5271618E-4,-0.0010690133,-48.9,4.275,6.0750003,,,,,,,,,,,,,,,,,,
SENSOR,1789661127532,40857759498237,0.15433706,0.2009971,9.87159,0.0,1.5271618E-4,-0.0010690133,-48.9,4.275,6.0750003,,,,,,,,,,,,,,,,,,
SENSOR,1789661127532,40857779498237,0.15553348,0.20458634,9.868599,0.0,1.5271618E-4,-0.0010690133,-48.9,4.275,6.0750003,,,,,,,,,,,,,,,,,,
SENSOR,1789661127544,40857804498237,0.15553348,0.20458634,9.868599,0.0,-3.0543236E-4,-0.0010690133,-48.9,4.275,6.0750003,,,,,,,,,,,,,,,,,,
SENSOR,1789661127563,40857814498237,0.15553348,0.20458634,9.868599,0.0,-3.0543236E-4,-0.0010690133,-48.825,4.05,5.3250003,,,,,,,,,,,,,,,,,,
SENSOR,1789661127631,40857799498237,0.15972091,0.200698,9.869197,0.0,-3.0543236E-4,-0.0010690133,-48.825,4.05,5.3250003,,,,,,,,,,,,,,,,,,
SENSOR,1789661127641,40857819498237,0.15792629,0.20458634,9.867402,0.0,-3.0543236E-4,-0.0010690133,-48.825,4.05,5.3250003,,,,,,,,,,,,,,,,,,
SENSOR,1789661127642,40857839498237,0.15613168,0.20428723,9.866206,0.0,-3.0543236E-4,-0.0010690133,-48.825,4.05,5.3250003,,,,,,,,,,,,,,,,,,
SENSOR,1789661127642,40857859498237,0.15702899,0.20338993,9.869197,0.0,-3.0543236E-4,-0.0010690133,-48.825,4.05,5.3250003,,,,,,,,,,,,,,,,,,
SENSOR,1789661127642,40857879498237,0.15672988,0.20548365,9.864711,0.0,-3.0543236E-4,-0.0010690133,-48.825,4.05,5.3250003,,,,,,,,,,,,,,,,,,
SENSOR,1789661127649,40857904498237,0.15672988,0.20548365,9.864711,0.0,1.5271618E-4,1.5271618E-4,-48.825,4.05,5.3250003,,,,,,,,,,,,,,,,,,
SENSOR,1789661127667,40857914498237,0.15672988,0.20548365,9.864711,0.0,1.5271618E-4,1.5271618E-4,-48.600002,3.6750002,5.4,,,,,,,,,,,,,,,,,,
GNSS,1789661127681,,true,11.05535069,76.92706502,346.8836669921875,12.035707,0.51,191.8,91,16,,,,,,,,,,,,,
GNSS,1789661127000,,true,11.05534059,76.92710477,356.77691650390625,11.805022,0.71,191.8,91,16,,,,,,,,,,,,,
SENSOR,1789661127731,40857899498237,0.1576272,0.20219351,9.868001,0.0,1.5271618E-4,1.5271618E-4,-48.600002,3.6750002,5.4,,,,,,,,,,,,,,,,,,
SENSOR,1789661127731,40857919498237,0.15553348,0.19890338,9.870394,0.0,1.5271618E-4,1.5271618E-4,-48.600002,3.6750002,5.4,,,,,,,,,,,,,,,,,,
SENSOR,1789661127731,40857939498237,0.15643078,0.20219351,9.870692,0.0,1.5271618E-4,1.5271618E-4,-48.600002,3.6750002,5.4,,,,,,,,,,,,,,,,,,
SENSOR,1789661127731,40857959498237,0.15732808,0.20368902,9.870992,0.0,1.5271618E-4,1.5271618E-4,-48.600002,3.6750002,5.4,,,,,,,,,,,,,,,,,,
SENSOR,1789661127731,40857979498237,0.15613168,0.19950159,9.871291,0.0,1.5271618E-4,1.5271618E-4,-48.600002,3.6750002,5.4,,,,,,,,,,,,,,,,,,
SENSOR,1789661127744,40858004498237,0.15613168,0.19950159,9.871291,0.0,1.5271618E-4,1.5271618E-4,-48.600002,3.6750002,5.4,,,,,,,,,,,,,,,,,,
SENSOR,1789661127762,40858014498237,0.15613168,0.19950159,9.871291,0.0,1.5271618E-4,1.5271618E-4,-48.9,3.825,5.55,,,,,,,,,,,,,,,,,,
SENSOR,1789661127831,40857999498237,0.15613168,0.2009971,9.870094,0.0,1.5271618E-4,1.5271618E-4,-48.9,3.825,5.55,,,,,,,,,,,,,,,,,,
SENSOR,1789661127832,40858019498237,0.15613168,0.20458634,9.869795,0.0,1.5271618E-4,1.5271618E-4,-48.9,3.825,5.55,,,,,,,,,,,,,,,,,,
SENSOR,1789661127832,40858039498237,0.15882361,0.20309082,9.870992,0.0,1.5271618E-4,1.5271618E-4,-48.9,3.825,5.55,,,,,,,,,,,,,,,,,,
SENSOR,1789661127832,40858059498237,0.1591227,0.2009971,9.866804,0.0,1.5271618E-4,1.5271618E-4,-48.9,3.825,5.55,,,,,,,,,,,,,,,,,,
SENSOR,1789661127832,40858079498237,0.15343975,0.20279172,9.8727865,0.0,1.5271618E-4,1.5271618E-4,-48.9,3.825,5.55,,,,,,,,,,,,,,,,,,
SENSOR,1789661127848,40858104498237,0.15343975,0.20279172,9.8727865,0.0,1.5271618E-4,1.5271618E-4,-48.9,3.825,5.55,,,,,,,,,,,,,,,,,,
SENSOR,1789661127867,40858114498237,0.15343975,0.20279172,9.8727865,0.0,1.5271618E-4,1.5271618E-4,-48.825,3.9750001,5.3250003,,,,,,,,,,,,,,,,,,
CELLULAR,1789661127898,,,,,,,,,,,,,,true,NR,4298047490,405,869,,75,403,634080,-106,NR_SS_RSRP,3,
SENSOR,1789661127931,40858099498237,0.15583257,0.20368902,9.868001,0.0,1.5271618E-4,1.5271618E-4,-48.825,3.9750001,5.3250003,,,,,,,,,,,,,,,,,,
SENSOR,1789661127931,40858119498237,0.15403795,0.20398813,9.872487,0.0,1.5271618E-4,1.5271618E-4,-48.825,3.9750001,5.3250003,,,,,,,,,,,,,,,,,,
SENSOR,1789661127931,40858139498237,0.15343975,0.200698,9.868897,0.0,1.5271618E-4,1.5271618E-4,-48.825,3.9750001,5.3250003,,,,,,,,,,,,,,,,,,
SENSOR,1789661127931,40858159498237,0.15463616,0.20608185,9.870394,0.0,1.5271618E-4,1.5271618E-4,-48.825,3.9750001,5.3250003,,,,,,,,,,,,,,,,,,
SENSOR,1789661127931,40858179498237,0.15463616,0.20249261,9.867402,0.0,1.5271618E-4,1.5271618E-4,-48.825,3.9750001,5.3250003,,,,,,,,,,,,,,,,,,
SENSOR,1789661127944,40858204498237,0.15463616,0.20249261,9.867402,-7.635809E-4,1.5271618E-4,1.5271618E-4,-48.825,3.9750001,5.3250003,,,,,,,,,,,,,,,,,,
SENSOR,1789661127962,40858214498237,0.15463616,0.20249261,9.867402,-7.635809E-4,1.5271618E-4,1.5271618E-4,-49.125004,3.9750001,5.625,,,,,,,,,,,,,,,,,,
SENSOR,1789661128032,40858199498237,0.15463616,0.19980069,9.866505,-7.635809E-4,1.5271618E-4,1.5271618E-4,-49.125004,3.9750001,5.625,,,,,,,,,,,,,,,,,,
SENSOR,1789661128032,40858219498237,0.15463616,0.20129621,9.8682995,-7.635809E-4,1.5271618E-4,1.5271618E-4,-49.125004,3.9750001,5.625,,,,,,,,,,,,,,,,,,
SENSOR,1789661128032,40858239498237,0.1576272,0.20368902,9.869795,-7.635809E-4,1.5271618E-4,1.5271618E-4,-49.125004,3.9750001,5.625,,,,,,,,,,,,,,,,,,
SENSOR,1789661128032,40858259498237,0.15463616,0.20219351,9.871291,-7.635809E-4,1.5271618E-4,1.5271618E-4,-49.125004,3.9750001,5.625,,,,,,,,,,,,,,,,,,
SENSOR,1789661128032,40858279498237,0.15732808,0.2009971,9.869197,-7.635809E-4,1.5271618E-4,1.5271618E-4,-49.125004,3.9750001,5.625,,,,,,,,,,,,,,,,,,
SENSOR,1789661128049,40858304498237,0.15732808,0.2009971,9.869197,0.0,1.5271618E-4,0.0,-49.125004,3.9750001,5.625,,,,,,,,,,,,,,,,,,
SENSOR,1789661128066,40858314498237,0.15732808,0.2009971,9.869197,0.0,1.5271618E-4,0.0,-49.2,3.9,5.925,,,,,,,,,,,,,,,,,,
SENSOR,1789661128131,40858299498237,0.1582254,0.20787647,9.870094,0.0,1.5271618E-4,0.0,-49.2,3.9,5.925,,,,,,,,,,,,,,,,,,
SENSOR,1789661128131,40858319498237,0.15732808,0.20279172,9.864711,0.0,1.5271618E-4,0.0,-49.2,3.9,5.925,,,,,,,,,,,,,,,,,,
SENSOR,1789661128131,40858339498237,0.1591227,0.200698,9.873384,0.0,1.5271618E-4,0.0,-49.2,3.9,5.925,,,,,,,,,,,,,,,,,,
SENSOR,1789661128132,40858359498237,0.15074782,0.2425724,9.880263,0.0,1.5271618E-4,0.0,-49.2,3.9,5.925,,,,,,,,,,,,,,,,,,
SENSOR,1789661128132,40858379498237,0.1591227,0.17168503,9.859925,0.0,1.5271618E-4,0.0,-49.2,3.9,5.925,,,,,,,,,,,,,,,,,,
SENSOR,1789661128143,40858404498237,0.1591227,0.17168503,9.859925,0.0,1.5271618E-4,-6.108647E-4,-49.2,3.9,5.925,,,,,,,,,,,,,,,,,,
SENSOR,1789661128161,40858414498237,0.1591227,0.17168503,9.859925,0.0,1.5271618E-4,-6.108647E-4,-49.800003,4.125,6.525,,,,,,,,,,,,,,,,,,
SENSOR,1789661128232,40858399498237,0.15972091,0.18155542,9.860822,0.0,1.5271618E-4,-6.108647E-4,-49.800003,4.125,6.525,,,,,,,,,,,,,,,,,,
SENSOR,1789661128232,40858419498237,0.15463616,0.21774685,9.870394,0.0,1.5271618E-4,-6.108647E-4,-49.800003,4.125,6.525,,,,,,,,,,,,,,,,,,
SENSOR,1789661128232,40858439498237,0.15702899,0.18215363,9.862318,0.0,1.5271618E-4,-6.108647E-4,-49.800003,4.125,6.525,,,,,,,,,,,,,,,,,,
SENSOR,1789661128232,40858459498237,0.15493527,0.23001008,9.87817,0.0,1.5271618E-4,-6.108647E-4,-49.800003,4.125,6.525,,,,,,,,,,,,,,,,,,
SENSOR,1789661128233,40858479498237,0.15702899,0.17527425,9.857831,0.0,1.5271618E-4,-6.108647E-4,-49.800003,4.125,6.525,,,,,,,,,,,,,,,,,,
SENSOR,1789661128248,40858504498237,0.15702899,0.17527425,9.857831,0.0,1.5271618E-4,-0.0010690133,-49.800003,4.125,6.525,,,,,,,,,,,,,,,,,,
SENSOR,1789661128265,40858514498237,0.15702899,0.17527425,9.857831,0.0,1.5271618E-4,-0.0010690133,-49.275,4.05,6.15,,,,,,,,,,,,,,,,,,
SENSOR,1789661128332,40858499498237,0.14955142,0.21864417,9.873982,0.0,1.5271618E-4,-0.0010690133,-49.275,4.05,6.15,,,,,,,,,,,,,,,,,,
SENSOR,1789661128332,40858519498237,0.15613168,0.2009971,9.8682995,0.0,1.5271618E-4,-0.0010690133,-49.275,4.05,6.15,,,,,,,,,,,,,,,,,,
SENSOR,1789661128332,40858539498237,0.15643078,0.2015953,9.87159,0.0,1.5271618E-4,-0.0010690133,-49.275,4.05,6.15,,,,,,,,,,,,,,,,,,
SENSOR,1789661128332,40858559498237,0.15523437,0.2117648,9.867104,0.0,1.5271618E-4,-0.0010690133,-49.275,4.05,6.15,,,,,,,,,,,,,,,,,,
SENSOR,1789661128332,40858579498237,0.15583257,0.19172491,9.871291,0.0,1.5271618E-4,-0.0010690133,-49.275,4.05,6.15,,,,,,,,,,,,,,,,,,
SENSOR,1789661128343,40858604498237,0.15583257,0.19172491,9.871291,-7.635809E-4,1.5271618E-4,1.5271618E-4,-49.275,4.05,6.15,,,,,,,,,,,,,,,,,,
SENSOR,1789661128371,40858614498237,0.15583257,0.19172491,9.871291,-7.635809E-4,1.5271618E-4,1.5271618E-4,-48.825,3.6000001,6.0750003,,,,,,,,,,,,,,,,,,
SENSOR,1789661128431,40858599498237,0.15493527,0.22253251,9.876974,-7.635809E-4,1.5271618E-4,1.5271618E-4,-48.825,3.6000001,6.0750003,,,,,,,,,,,,,,,,,,
SENSOR,1789661128431,40858619498237,0.15972091,0.18454644,9.865608,-7.635809E-4,1.5271618E-4,1.5271618E-4,-48.825,3.6000001,6.0750003,,,,,,,,,,,,,,,,,,
SENSOR,1789661128431,40858639498237,0.15583257,0.20638095,9.8727865,-7.635809E-4,1.5271618E-4,1.5271618E-4,-48.825,3.6000001,6.0750003,,,,,,,,,,,,,,,,,,
SENSOR,1789661128431,40858659498237,0.1585245,0.21505493,9.87159,-7.635809E-4,1.5271618E-4,1.5271618E-4,-48.825,3.6000001,6.0750003,,,,,,,,,,,,,,,,,,
SENSOR,1789661128432,40858679498237,0.16121642,0.16959131,9.865907,-7.635809E-4,1.5271618E-4,1.5271618E-4,-48.825,3.6000001,6.0750003,,,,,,,,,,,,,,,,,,
SENSOR,1789661128447,40858704498237,0.16121642,0.16959131,9.865907,0.0,1.5271618E-4,1.5271618E-4,-48.825,3.6000001,6.0750003,,,,,,,,,,,,,,,,,,
SENSOR,1789661128466,40858714498237,0.16121642,0.16959131,9.865907,0.0,1.5271618E-4,1.5271618E-4,-49.2,3.825,5.8500004,,,,,,,,,,,,,,,,,,
SENSOR,1789661128531,40858699498237,0.14985052,0.22372891,9.877572,0.0,1.5271618E-4,1.5271618E-4,-49.2,3.825,5.8500004,,,,,,,,,,,,,,,,,,
SENSOR,1789661128531,40858719498237,0.16211374,0.19441684,9.8682995,0.0,1.5271618E-4,1.5271618E-4,-49.2,3.825,5.8500004,,,,,,,,,,,,,,,,,,
SENSOR,1789661128531,40858739498237,0.16301104,0.18454644,9.864411,0.0,1.5271618E-4,1.5271618E-4,-49.2,3.825,5.8500004,,,,,,,,,,,,,,,,,,
SENSOR,1789661128531,40858759498237,0.15284155,0.22013968,9.882358,0.0,1.5271618E-4,1.5271618E-4,-49.2,3.825,5.8500004,,,,,,,,,,,,,,,,,,
SENSOR,1789661128531,40858779498237,0.1585245,0.18723837,9.8632145,0.0,1.5271618E-4,1.5271618E-4,-49.2,3.825,5.8500004,,,,,,,,,,,,,,,,,,
SENSOR,1789661128542,40858804498237,0.1585245,0.18723837,9.8632145,4.5814854E-4,1.5271618E-4,1.5271618E-4,-49.2,3.825,5.8500004,,,,,,,,,,,,,,,,,,
SENSOR,1789661128569,40858814498237,0.1585245,0.18723837,9.8632145,4.5814854E-4,1.5271618E-4,1.5271618E-4,-48.600002,4.05,5.1000004,,,,,,,,,,,,,,,,,,
SENSOR,1789661128631,40858799498237,0.15403795,0.21475583,9.871889,4.5814854E-4,1.5271618E-4,1.5271618E-4,-48.600002,4.05,5.1000004,,,,,,,,,,,,,,,,,,
SENSOR,1789661128640,40858819498237,0.15702899,0.19351953,9.869496,4.5814854E-4,1.5271618E-4,1.5271618E-4,-48.600002,4.05,5.1000004,,,,,,,,,,,,,,,,,,
SENSOR,1789661128640,40858839498237,0.15702899,0.2015953,9.87159,4.5814854E-4,1.5271618E-4,1.5271618E-4,-48.600002,4.05,5.1000004,,,,,,,,,,,,,,,,,,
SENSOR,1789661128640,40858859498237,0.1585245,0.20518455,9.8682995,4.5814854E-4,1.5271618E-4,1.5271618E-4,-48.600002,4.05,5.1000004,,,,,,,,,,,,,,,,,,
SENSOR,1789661128640,40858879498237,0.15523437,0.20039889,9.873384,4.5814854E-4,1.5271618E-4,1.5271618E-4,-48.600002,4.05,5.1000004,,,,,,,,,,,,,,,,,,
SENSOR,1789661128647,40858904498237,0.15523437,0.20039889,9.873384,0.0,1.5271618E-4,1.5271618E-4,-48.600002,4.05,5.1000004,,,,,,,,,,,,,,,,,,
SENSOR,1789661128664,40858914498237,0.15523437,0.20039889,9.873384,0.0,1.5271618E-4,1.5271618E-4,-46.800003,4.3500004,2.9250002,,,,,,,,,,,,,,,,,,
SENSOR,1789661128730,40858899498237,0.15254244,0.2105684,9.875777,0.0,1.5271618E-4,1.5271618E-4,-46.800003,4.3500004,2.9250002,,,,,,,,,,,,,,,,,,
SENSOR,1789661128730,40858919498237,0.15314065,0.19710876,9.869795,0.0,1.5271618E-4,1.5271618E-4,-46.800003,4.3500004,2.9250002,,,,,,,,,,,,,,,,,,
SENSOR,1789661128730,40858939498237,0.15553348,0.20578274,9.870992,0.0,1.5271618E-4,1.5271618E-4,-46.800003,4.3500004,2.9250002,,,,,,,,,,,,,,,,,,
SENSOR,1789661128730,40858959498237,0.15732808,0.19890338,9.870094,0.0,1.5271618E-4,1.5271618E-4,-46.800003,4.3500004,2.9250002,,,,,,,,,,,,,,,,,,
SENSOR,1789661128731,40858979498237,0.1591227,0.200698,9.866505,0.0,1.5271618E-4,1.5271618E-4,-46.800003,4.3500004,2.9250002,,,,,,,,,,,,,,,,,,
SENSOR,1789661128742,40859004498237,0.1591227,0.200698,9.866505,0.0,1.5271618E-4,-7.635809E-4,-46.800003,4.3500004,2.9250002,,,,,,,,,,,,,,,,,,
SENSOR,1789661128768,40859014498237,0.1591227,0.200698,9.866505,0.0,1.5271618E-4,-7.635809E-4,-45.825,4.425,0.45000002,,,,,,,,,,,,,,,,,,
SENSOR,1789661128831,40858999498237,0.15463616,0.20309082,9.875478,0.0,1.5271618E-4,-7.635809E-4,-45.825,4.425,0.45000002,,,,,,,,,,,,,,,,,,
SENSOR,1789661128831,40859019498237,0.16061822,0.2009971,9.871889,0.0,1.5271618E-4,-7.635809E-4,-45.825,4.425,0.45000002,,,,,,,,,,,,,,,,,,
SENSOR,1789661128831,40859039498237,0.15433706,0.20578274,9.87159,0.0,1.5271618E-4,-7.635809E-4,-45.825,4.425,0.45000002,,,,,,,,,,,,,,,,,,
SENSOR,1789661128831,40859059498237,0.15553348,0.19591236,9.872188,0.0,1.5271618E-4,-7.635809E-4,-45.825,4.425,0.45000002,,,,,,,,,,,,,,,,,,
SENSOR,1789661128831,40859079498237,0.1576272,0.20189442,9.864711,0.0,1.5271618E-4,-7.635809E-4,-45.825,4.425,0.45000002,,,,,,,,,,,,,,,,,,
SENSOR,1789661128847,40859104498237,0.1576272,0.20189442,9.864711,-7.635809E-4,1.5271618E-4,1.5271618E-4,-45.825,4.425,0.45000002,,,,,,,,,,,,,,,,,,
SENSOR,1789661128864,40859114498237,0.1576272,0.20189442,9.864711,-7.635809E-4,1.5271618E-4,1.5271618E-4,-47.25,4.5,2.775,,,,,,,,,,,,,,,,,,
GNSS,1789661128898,,true,11.05534059,76.92710477,356.77691650390625,11.805022,0.71,191.8,94,27,,,,,,,,,,,,,
GNSS,1789661129000,,true,11.0552843,76.92699582,365.16265869140625,7.3955626,0.15,191.8,94,27,,,,,,,,,,,,,
CELLULAR,1789661128919,,,,,,,,,,,,,,true,NR,4298047490,405,869,,75,403,634080,-106,NR_SS_RSRP,3,
SENSOR,1789661128931,40859099498237,0.15224335,0.19800608,9.870992,-7.635809E-4,1.5271618E-4,1.5271618E-4,-47.25,4.5,2.775,,,,,,,,,,,,,,,,,,
SENSOR,1789661128931,40859119498237,0.15403795,0.20697916,9.870992,-7.635809E-4,1.5271618E-4,1.5271618E-4,-47.25,4.5,2.775,,,,,,,,,,,,,,,,,,
SENSOR,1789661128931,40859139498237,0.16211374,0.1905285,9.8682995,-7.635809E-4,1.5271618E-4,1.5271618E-4,-47.25,4.5,2.775,,,,,,,,,,,,,,,,,,
SENSOR,1789661128931,40859159498237,0.15254244,0.20039889,9.8632145,-7.635809E-4,1.5271618E-4,1.5271618E-4,-47.25,4.5,2.775,,,,,,,,,,,,,,,,,,
SENSOR,1789661128932,40859179498237,0.1576272,0.19292133,9.867402,-7.635809E-4,1.5271618E-4,1.5271618E-4,-47.25,4.5,2.775,,,,,,,,,,,,,,,,,,
SENSOR,1789661128942,40859204498237,0.1576272,0.19292133,9.867402,0.0,1.5271618E-4,1.5271618E-4,-47.25,4.5,2.775,,,,,,,,,,,,,,,,,,
SENSOR,1789661128968,40859214498237,0.1576272,0.19292133,9.867402,0.0,1.5271618E-4,1.5271618E-4,-48.0,4.3500004,3.825,,,,,,,,,,,,,,,,,,
SENSOR,1789661129030,40859199498237,0.15403795,0.20787647,9.873384,0.0,1.5271618E-4,1.5271618E-4,-48.0,4.3500004,3.825,,,,,,,,,,,,,,,,,,
SENSOR,1789661129030,40859219498237,0.15433706,0.20518455,9.865309,0.0,1.5271618E-4,1.5271618E-4,-48.0,4.3500004,3.825,,,,,,,,,,,,,,,,,,
SENSOR,1789661129030,40859239498237,0.15972091,0.19980069,9.872487,0.0,1.5271618E-4,1.5271618E-4,-48.0,4.3500004,3.825,,,,,,,,,,,,,,,,,,
SENSOR,1789661129030,40859259498237,0.15792629,0.20638095,9.8682995,0.0,1.5271618E-4,1.5271618E-4,-48.0,4.3500004,3.825,,,,,,,,,,,,,,,,,,
SENSOR,1789661129030,40859279498237,0.15792629,0.20428723,9.871291,0.0,1.5271618E-4,1.5271618E-4,-48.0,4.3500004,3.825,,,,,,,,,,,,,,,,,,
SENSOR,1789661129046,40859304498237,0.15792629,0.20428723,9.871291,0.0,1.5271618E-4,1.5271618E-4,-48.0,4.3500004,3.825,,,,,,,,,,,,,,,,,,
SENSOR,1789661129064,40859314498237,0.15792629,0.20428723,9.871291,0.0,1.5271618E-4,1.5271618E-4,-46.875,4.425,2.775,,,,,,,,,,,,,,,,,,
SENSOR,1789661129131,40859299498237,0.15373886,0.20249261,9.8682995,0.0,1.5271618E-4,1.5271618E-4,-46.875,4.425,2.775,,,,,,,,,,,,,,,,,,
SENSOR,1789661129131,40859319498237,0.15463616,0.19860429,9.870692,0.0,1.5271618E-4,1.5271618E-4,-46.875,4.425,2.775,,,,,,,,,,,,,,,,,,
SENSOR,1789661129131,40859339498237,0.15463616,0.20548365,9.87458,0.0,1.5271618E-4,1.5271618E-4,-46.875,4.425,2.775,,,,,,,,,,,,,,,,,,
SENSOR,1789661129131,40859359498237,0.15672988,0.2009971,9.870992,0.0,1.5271618E-4,1.5271618E-4,-46.875,4.425,2.775,,,,,,,,,,,,,,,,,,
SENSOR,1789661129131,40859379498237,0.1594218,0.2000998,9.863813,0.0,1.5271618E-4,1.5271618E-4,-46.875,4.425,2.775,,,,,,,,,,,,,,,,,,
SENSOR,1789661129141,40859404498237,0.1594218,0.2000998,9.863813,0.0,1.5271618E-4,-9.162971E-4,-46.875,4.425,2.775,,,,,,,,,,,,,,,,,,
SENSOR,1789661129168,40859414498237,0.1594218,0.2000998,9.863813,0.0,1.5271618E-4,-9.162971E-4,-47.625,3.7500002,4.65,,,,,,,,,,,,,,,,,,
SENSOR,1789661129230,40859399498237,0.16211374,0.20279172,9.870394,0.0,1.5271618E-4,-9.162971E-4,-47.625,3.7500002,4.65,,,,,,,,,,,,,,,,,,
SENSOR,1789661129230,40859419498237,0.14955142,0.2009971,9.870692,0.0,1.5271618E-4,-9.162971E-4,-47.625,3.7500002,4.65,,,,,,,,,,,,,,,,,,
SENSOR,1789661129231,40859439498237,0.15643078,0.20668006,9.867402,0.0,1.5271618E-4,-9.162971E-4,-47.625,3.7500002,4.65,,,,,,,,,,,,,,,,,,
SENSOR,1789661129231,40859459498237,0.15643078,0.2015953,9.8682995,0.0,1.5271618E-4,-9.162971E-4,-47.625,3.7500002,4.65,,,,,,,,,,,,,,,,,,
SENSOR,1789661129231,40859479498237,0.1585245,0.18305093,9.862617,0.0,1.5271618E-4,-9.162971E-4,-47.625,3.7500002,4.65,,,,,,,,,,,,,,,,,,
SENSOR,1789661129245,40859504498237,0.1585245,0.18305093,9.862617,-4.5814854E-4,1.5271618E-4,1.5271618E-4,-47.625,3.7500002,4.65,,,,,,,,,,,,,,,,,,
SENSOR,1789661129263,40859514498237,0.1585245,0.18305093,9.862617,-4.5814854E-4,1.5271618E-4,1.5271618E-4,-47.925003,3.825,5.4,,,,,,,,,,,,,,,,,,
SENSOR,1789661129332,40859499498237,0.1585245,0.212363,9.864411,-4.5814854E-4,1.5271618E-4,1.5271618E-4,-47.925003,3.825,5.4,,,,,,,,,,,,,,,,,,
SENSOR,1789661129332,40859519498237,0.15643078,0.20668006,9.865309,-4.5814854E-4,1.5271618E-4,1.5271618E-4,-47.925003,3.825,5.4,,,,,,,,,,,,,,,,,,
SENSOR,1789661129332,40859539498237,0.15643078,0.19740787,9.865608,-4.5814854E-4,1.5271618E-4,1.5271618E-4,-47.925003,3.825,5.4,,,,,,,,,,,,,,,,,,
SENSOR,1789661129332,40859559498237,0.15104693,0.20668006,9.869197,-4.5814854E-4,1.5271618E-4,1.5271618E-4,-47.925003,3.825,5.4,,,,,,,,,,,,,,,,,,
SENSOR,1789661129332,40859579498237,0.15672988,0.19890338,9.868897,-4.5814854E-4,1.5271618E-4,1.5271618E-4,-47.925003,3.825,5.4,,,,,,,,,,,,,,,,,,
SENSOR,1789661129342,40859604498237,0.15672988,0.19890338,9.868897,0.0,1.5271618E-4,1.5271618E-4,-47.925003,3.825,5.4,,,,,,,,,,,,,,,,,,
SENSOR,1789661129367,40859614498237,0.15672988,0.19890338,9.868897,0.0,1.5271618E-4,1.5271618E-4,-48.525,3.9,4.425,,,,,,,,,,,,,,,,,,
SENSOR,1789661129431,40859599498237,0.15732808,0.20548365,9.865608,0.0,1.5271618E-4,1.5271618E-4,-48.525,3.9,4.425,,,,,,,,,,,,,,,,,,
SENSOR,1789661129431,40859619498237,0.15972091,0.20398813,9.866505,0.0,1.5271618E-4,1.5271618E-4,-48.525,3.9,4.425,,,,,,,,,,,,,,,,,,
SENSOR,1789661129431,40859639498237,0.15672988,0.20279172,9.873085,0.0,1.5271618E-4,1.5271618E-4,-48.525,3.9,4.425,,,,,,,,,,,,,,,,,,
SENSOR,1789661129432,40859659498237,0.15403795,0.20039889,9.867402,0.0,1.5271618E-4,1.5271618E-4,-48.525,3.9,4.425,,,,,,,,,,,,,,,,,,
SENSOR,1789661129432,40859679498237,0.15403795,0.2009971,9.865309,0.0,1.5271618E-4,1.5271618E-4,-48.525,3.9,4.425,,,,,,,,,,,,,,,,,,
SENSOR,1789661129445,40859704498237,0.15403795,0.2009971,9.865309,0.0,-0.0010690133,1.5271618E-4,-48.525,3.9,4.425,,,,,,,,,,,,,,,,,,
SENSOR,1789661129463,40859714498237,0.15403795,0.2009971,9.865309,0.0,-0.0010690133,1.5271618E-4,-47.100002,4.125,2.775,,,,,,,,,,,,,,,,,,
SENSOR,1789661129530,40859699498237,0.15583257,0.20309082,9.863514,0.0,-0.0010690133,1.5271618E-4,-47.100002,4.125,2.775,,,,,,,,,,,,,,,,,,
SENSOR,1789661129530,40859719498237,0.15433706,0.2000998,9.868001,0.0,-0.0010690133,1.5271618E-4,-47.100002,4.125,2.775,,,,,,,,,,,,,,,,,,
SENSOR,1789661129530,40859739498237,0.1591227,0.20458634,9.866804,0.0,-0.0010690133,1.5271618E-4,-47.100002,4.125,2.775,,,,,,,,,,,,,,,,,,
SENSOR,1789661129530,40859759498237,0.15672988,0.20129621,9.865009,0.0,-0.0010690133,1.5271618E-4,-47.100002,4.125,2.775,,,,,,,,,,,,,,,,,,
SENSOR,1789661129531,40859779498237,0.16091733,0.20638095,9.864112,0.0,-0.0010690133,1.5271618E-4,-47.100002,4.125,2.775,,,,,,,,,,,,,,,,,,
SENSOR,1789661129541,40859804498237,0.16091733,0.20638095,9.864112,0.0,1.5271618E-4,1.5271618E-4,-47.100002,4.125,2.775,,,,,,,,,,,,,,,,,,
SENSOR,1789661129567,40859814498237,0.16091733,0.20638095,9.864112,0.0,1.5271618E-4,1.5271618E-4,-48.750004,3.825,5.4,,,,,,,,,,,,,,,,,,
SENSOR,1789661129631,40859799498237,0.15792629,0.2009971,9.866804,0.0,1.5271618E-4,1.5271618E-4,-48.750004,3.825,5.4,,,,,,,,,,,,,,,,,,
SENSOR,1789661129639,40859819498237,0.15134603,0.19830517,9.867104,0.0,1.5271618E-4,1.5271618E-4,-48.750004,3.825,5.4,,,,,,,,,,,,,,,,,,
SENSOR,1789661129639,40859839498237,0.15403795,0.20189442,9.870992,0.0,1.5271618E-4,1.5271618E-4,-48.750004,3.825,5.4,,,,,,,,,,,,,,,,,,
SENSOR,1789661129639,40859859498237,0.15254244,0.20548365,9.868001,0.0,1.5271618E-4,1.5271618E-4,-48.750004,3.825,5.4,,,,,,,,,,,,,,,,,,
SENSOR,1789661129639,40859879498237,0.16121642,0.20338993,9.866505,0.0,1.5271618E-4,1.5271618E-4,-48.750004,3.825,5.4,,,,,,,,,,,,,,,,,,
SENSOR,1789661129645,40859904498237,0.16121642,0.20338993,9.866505,0.0,1.5271618E-4,1.5271618E-4,-48.750004,3.825,5.4,,,,,,,,,,,,,,,,,,
SENSOR,1789661129663,40859914498237,0.16121642,0.20338993,9.866505,0.0,1.5271618E-4,1.5271618E-4,-49.350002,3.7500002,7.5000005,,,,,,,,,,,,,,,,,,
SENSOR,1789661129731,40859899498237,0.1585245,0.20638095,9.8682995,0.0,1.5271618E-4,1.5271618E-4,-49.350002,3.7500002,7.5000005,,,,,,,,,,,,,,,,,,
SENSOR,1789661129731,40859919498237,0.16031912,0.19830517,9.869795,0.0,1.5271618E-4,1.5271618E-4,-49.350002,3.7500002,7.5000005,,,,,,,,,,,,,,,,,,
SENSOR,1789661129731,40859939498237,0.1576272,0.2015953,9.870394,0.0,1.5271618E-4,1.5271618E-4,-49.350002,3.7500002,7.5000005,,,,,,,,,,,,,,,,,,
SENSOR,1789661129731,40859959498237,0.1582254,0.20249261,9.870094,0.0,1.5271618E-4,1.5271618E-4,-49.350002,3.7500002,7.5000005,,,,,,,,,,,,,,,,,,
SENSOR,1789661129731,40859979498237,0.15463616,0.20309082,9.865907,0.0,1.5271618E-4,1.5271618E-4,-49.350002,3.7500002,7.5000005,,,,,,,,,,,,,,,,,,
SENSOR,1789661129740,40860004498237,0.15463616,0.20309082,9.865907,0.0,-0.0010690133,1.5271618E-4,-49.350002,3.7500002,7.5000005,,,,,,,,,,,,,,,,,,
SENSOR,1789661129767,40860014498237,0.15463616,0.20309082,9.865907,0.0,-0.0010690133,1.5271618E-4,-49.350002,3.7500002,7.425,,,,,,,,,,,,,,,,,,
SENSOR,1789661129832,40859999498237,0.1576272,0.20189442,9.868001,0.0,-0.0010690133,1.5271618E-4,-49.350002,3.7500002,7.425,,,,,,,,,,,,,,,,,,
SENSOR,1789661129833,40860019498237,0.15553348,0.20129621,9.870394,0.0,-0.0010690133,1.5271618E-4,-49.350002,3.7500002,7.425,,,,,,,,,,,,,,,,,,
SENSOR,1789661129833,40860039498237,0.15463616,0.20548365,9.866206,0.0,-0.0010690133,1.5271618E-4,-49.350002,3.7500002,7.425,,,,,,,,,,,,,,,,,,
SENSOR,1789661129833,40860059498237,0.15792629,0.2009971,9.870394,0.0,-0.0010690133,1.5271618E-4,-49.350002,3.7500002,7.425,,,,,,,,,,,,,,,,,,
SENSOR,1789661129833,40860079498237,0.15343975,0.19980069,9.875179,0.0,-0.0010690133,1.5271618E-4,-49.350002,3.7500002,7.425,,,,,,,,,,,,,,,,,,
SENSOR,1789661129847,40860104498237,0.15343975,0.19980069,9.875179,0.0,1.5271618E-4,1.5271618E-4,-49.350002,3.7500002,7.425,,,,,,,,,,,,,,,,,,
SENSOR,1789661129863,40860114498237,0.15343975,0.19980069,9.875179,0.0,1.5271618E-4,1.5271618E-4,-48.15,3.6750002,4.425,,,,,,,,,,,,,,,,,,
GNSS,1789661129899,,true,11.0552843,76.92699582,365.16265869140625,7.3955626,0.15,191.8,94,25,,,,,,,,,,,,,
GNSS,1789661130000,,true,11.05530591,76.92704438,369.88800048828125,5.239046,0.0,,94,25,,,,,,,,,,,,,
CELLULAR,1789661129926,,,,,,,,,,,,,,true,NR,4298047490,405,869,,75,403,634080,-106,NR_SS_RSRP,3,
SENSOR,1789661129937,40860099498237,0.15014961,0.200698,9.868001,0.0,1.5271618E-4,1.5271618E-4,-48.15,3.6750002,4.425,,,,,,,,,,,,,,,,,,
SENSOR,1789661129937,40860119498237,0.15433706,0.20488544,9.871291,0.0,1.5271618E-4,1.5271618E-4,-48.15,3.6750002,4.425,,,,,,,,,,,,,,,,,,
SENSOR,1789661129937,40860139498237,0.14626129,0.26590243,9.902099,0.0,1.5271618E-4,1.5271618E-4,-48.15,3.6750002,4.425,,,,,,,,,,,,,,,,,,
SENSOR,1789661129937,40860159498237,0.1689931,0.12622139,9.835399,0.0,1.5271618E-4,1.5271618E-4,-48.15,3.6750002,4.425,,,,,,,,,,,,,,,,,,
SENSOR,1789661129937,40860179498237,0.15314065,0.2117648,9.867702,0.0,1.5271618E-4,1.5271618E-4,-48.15,3.6750002,4.425,,,,,,,,,,,,,,,,,,
SENSOR,1789661129949,40860204498237,0.15314065,0.2117648,9.867702,0.0,1.5271618E-4,1.5271618E-4,-48.15,3.6750002,4.425,,,,,,,,,,,,,,,,,,
SENSOR,1789661129967,40860214498237,0.15314065,0.2117648,9.867702,0.0,1.5271618E-4,1.5271618E-4,-48.600002,4.3500004,5.55,,,,,,,,,,,,,,,,,,
SENSOR,1789661130031,40860199498237,0.15284155,0.21864417,9.8727865,0.0,1.5271618E-4,1.5271618E-4,-48.600002,4.3500004,5.55,,,,,,,,,,,,,,,,,,
SENSOR,1789661130032,40860219498237,0.1594218,0.18215363,9.859626,0.0,1.5271618E-4,1.5271618E-4,-48.600002,4.3500004,5.55,,,,,,,,,,,,,,,,,,
SENSOR,1789661130032,40860239498237,0.15493527,0.21684955,9.869197,0.0,1.5271618E-4,1.5271618E-4,-48.600002,4.3500004,5.55,,,,,,,,,,,,,,,,,,
SENSOR,1789661130032,40860259498237,0.16331014,0.18454644,9.870692,0.0,1.5271618E-4,1.5271618E-4,-48.600002,4.3500004,5.55,,,,,,,,,,,,,,,,,,
SENSOR,1789661130032,40860279498237,0.15373886,0.2114657,9.873384,0.0,1.5271618E-4,1.5271618E-4,-48.600002,4.3500004,5.55,,,,,,,,,,,,,,,,,,
SENSOR,1789661130045,40860304498237,0.15373886,0.2114657,9.873384,-4.5814854E-4,1.5271618E-4,1.5271618E-4,-48.600002,4.3500004,5.55,,,,,,,,,,,,,,,,,,
SENSOR,1789661130063,40860314498237,0.15373886,0.2114657,9.873384,-4.5814854E-4,1.5271618E-4,1.5271618E-4,-49.500004,4.05,7.8750005,,,,,,,,,,,,,,,,,,
SENSOR,1789661130131,40860299498237,0.15523437,0.19980069,9.871291,-4.5814854E-4,1.5271618E-4,1.5271618E-4,-49.500004,4.05,7.8750005,,,,,,,,,,,,,,,,,,
SENSOR,1789661130132,40860319498237,0.15433706,0.19531415,9.869496,-4.5814854E-4,1.5271618E-4,1.5271618E-4,-49.500004,4.05,7.8750005,,,,,,,,,,,,,,,,,,
SENSOR,1789661130132,40860339498237,0.15403795,0.20817557,9.874282,-4.5814854E-4,1.5271618E-4,1.5271618E-4,-49.500004,4.05,7.8750005,,,,,,,,,,,,,,,,,,
SENSOR,1789661130132,40860359498237,0.1582254,0.19411774,9.862318,-4.5814854E-4,1.5271618E-4,1.5271618E-4,-49.500004,4.05,7.8750005,,,,,,,,,,,,,,,,,,
SENSOR,1789661130132,40860379498237,0.15463616,0.21296121,9.867702,-4.5814854E-4,1.5271618E-4,1.5271618E-4,-49.500004,4.05,7.8750005,,,,,,,,,,,,,,,,,,
SENSOR,1789661130150,40860404498237,0.15463616,0.21296121,9.867702,0.0,-9.162971E-4,1.5271618E-4,-49.500004,4.05,7.8750005,,,,,,,,,,,,,,,,,,
SENSOR,1789661130168,40860414498237,0.15463616,0.21296121,9.867702,0.0,-9.162971E-4,1.5271618E-4,-49.95,3.7500002,7.8750005,,,,,,,,,,,,,,,,,,
SENSOR,1789661130231,40860399498237,0.1594218,0.19232312,9.863813,0.0,-9.162971E-4,1.5271618E-4,-49.95,3.7500002,7.8750005,,,,,,,,,,,,,,,,,,
SENSOR,1789661130231,40860419498237,0.15343975,0.20398813,9.869197,0.0,-9.162971E-4,1.5271618E-4,-49.95,3.7500002,7.8750005,,,,,,,,,,,,,,,,,,
SENSOR,1789661130231,40860439498237,0.15732808,0.20189442,9.869795,0.0,-9.162971E-4,1.5271618E-4,-49.95,3.7500002,7.8750005,,,,,,,,,,,,,,,,,,
SENSOR,1789661130231,40860459498237,0.15702899,0.19860429,9.867104,0.0,-9.162971E-4,1.5271618E-4,-49.95,3.7500002,7.8750005,,,,,,,,,,,,,,,,,,
SENSOR,1789661130231,40860479498237,0.15972091,0.2015953,9.865608,0.0,-9.162971E-4,1.5271618E-4,-49.95,3.7500002,7.8750005,,,,,,,,,,,,,,,,,,
SENSOR,1789661130244,40860504498237,0.15972091,0.2015953,9.865608,0.0,1.5271618E-4,1.5271618E-4,-49.95,3.7500002,7.8750005,,,,,,,,,,,,,,,,,,
SENSOR,1789661130262,40860514498237,0.15972091,0.2015953,9.865608,0.0,1.5271618E-4,1.5271618E-4,-48.600002,4.125,6.6000004,,,,,,,,,,,,,,,,,,
SENSOR,1789661130331,40860499498237,0.15553348,0.19920248,9.862916,0.0,1.5271618E-4,1.5271618E-4,-48.600002,4.125,6.6000004,,,,,,,,,,,,,,,,,,
SENSOR,1789661130332,40860519498237,0.16031912,0.19890338,9.8682995,0.0,1.5271618E-4,1.5271618E-4,-48.600002,4.125,6.6000004,,,,,,,,,,,,,,,,,,
SENSOR,1789661130332,40860539498237,0.15194423,0.2000998,9.864411,0.0,1.5271618E-4,1.5271618E-4,-48.600002,4.125,6.6000004,,,,,,,,,,,,,,,,,,
SENSOR,1789661130332,40860559498237,0.15732808,0.20727827,9.8682995,0.0,1.5271618E-4,1.5271618E-4,-48.600002,4.125,6.6000004,,,,,,,,,,,,,,,,,,
SENSOR,1789661130332,40860579498237,0.15433706,0.20129621,9.864711,0.0,1.5271618E-4,1.5271618E-4,-48.600002,4.125,6.6000004,,,,,,,,,,,,,,,,,,
SENSOR,1789661130348,40860604498237,0.15433706,0.20129621,9.864711,0.0,-0.0010690133,1.5271618E-4,-48.600002,4.125,6.6000004,,,,,,,,,,,,,,,,,,
SENSOR,1789661130367,40860614498237,0.15433706,0.20129621,9.864711,0.0,-0.0010690133,1.5271618E-4,-50.100002,4.05,7.8,,,,,,,,,,,,,,,,,,
SENSOR,1789661130405,40860599498237,0.15882361,0.20398813,9.865309,0.0,-0.0010690133,1.5271618E-4,-50.100002,4.05,7.8,,,,,,,,,,,,,,,,,,
SENSOR,1789661130406,40860619498237,0.15732808,0.19740787,9.861421,0.0,-0.0010690133,1.5271618E-4,-50.100002,4.05,7.8,,,,,,,,,,,,,,,,,,
SENSOR,1789661130406,40860639498237,0.15463616,0.19920248,9.864411,0.0,-0.0010690133,1.5271618E-4,-50.100002,4.05,7.8,,,,,,,,,,,,,,,,,,
SENSOR,1789661130431,40860659498237,0.15972091,0.20727827,9.870992,0.0,-0.0010690133,1.5271618E-4,-50.100002,4.05,7.8,,,,,,,,,,,,,,,,,,
SENSOR,1789661130431,40860679498237,0.15882361,0.19890338,9.870394,0.0,-0.0010690133,1.5271618E-4,-50.100002,4.05,7.8,,,,,,,,,,,,,,,,,,
SENSOR,1789661130444,40860704498237,0.15882361,0.19890338,9.870394,0.0,1.5271618E-4,1.5271618E-4,-50.100002,4.05,7.8,,,,,,,,,,,,,,,,,,
SENSOR,1789661130463,40860714498237,0.15882361,0.19890338,9.870394,0.0,1.5271618E-4,1.5271618E-4,-50.325,4.05,7.7250004,,,,,,,,,,,,,,,,,,
SENSOR,1789661130532,40860699498237,0.15284155,0.20249261,9.868001,0.0,1.5271618E-4,1.5271618E-4,-50.325,4.05,7.7250004,,,,,,,,,,,,,,,,,,
SENSOR,1789661130532,40860719498237,0.1576272,0.19830517,9.868599,0.0,1.5271618E-4,1.5271618E-4,-50.325,4.05,7.7250004,,,,,,,,,,,,,,,,,,
SENSOR,1789661130532,40860739498237,0.15643078,0.20668006,9.867702,0.0,1.5271618E-4,1.5271618E-4,-50.325,4.05,7.7250004,,,,,,,,,,,,,,,,,,
SENSOR,1789661130532,40860759498237,0.15702899,0.20338993,9.863514,0.0,1.5271618E-4,1.5271618E-4,-50.325,4.05,7.7250004,,,,,,,,,,,,,,,,,,
SENSOR,1789661130532,40860779498237,0.15373886,0.20488544,9.863514,0.0,1.5271618E-4,1.5271618E-4,-50.325,4.05,7.7250004,,,,,,,,,,,,,,,,,,
SENSOR,1789661130548,40860804498237,0.15373886,0.20488544,9.863514,0.0,-9.162971E-4,1.5271618E-4,-50.325,4.05,7.7250004,,,,,,,,,,,,,,,,,,
SENSOR,1789661130566,40860814498237,0.15373886,0.20488544,9.863514,0.0,-9.162971E-4,1.5271618E-4,-49.725002,3.9750001,7.3500004,,,,,,,,,,,,,,,,,,
SENSOR,1789661130612,40860799498237,0.15672988,0.19950159,9.864411,0.0,-9.162971E-4,1.5271618E-4,-49.725002,3.9750001,7.3500004,,,,,,,,,,,,,,,,,,
SENSOR,1789661130625,40860819498237,0.15972091,0.20129621,9.869197,0.0,-9.162971E-4,1.5271618E-4,-49.725002,3.9750001,7.3500004,,,,,,,,,,,,,,,,,,
