timestamp_ms,relative_time_s,accel_x,accel_y,accel_z,gyro_x,gyro_y,gyro_z,mag_x,mag_y,mag_z,accel_mag,gyro_mag,accel_x_filt,accel_y_filt,accel_z_filt,latitude,longitude,altitude,gnss_speed_m_s,gnss_accuracy,gnss_bearing,gnss_speed_km_h,cell_id,signal_dbm,flag_imu_valid,flag_gnss_valid,flag_speed_ref_valid,flag_outage,flag_cell_valid
1789661771097.0,0.0,0.14955142,0.23539393,9.859925,0.0010690133,0.0032070398,-0.0006108647,-56.025,-15.000001,2.8500001,9.863868254145018,0.0034352655495706614,0.14955081606530407,0.23539678658116947,9.859927232226054,,,,,,,,,,1,0,0,1,0
1789661771107.0,0.01,0.14955142,0.23539393,9.859925,-0.005955931,-0.010995565,0.00015271618,-56.025,-15.000001,2.8500001,9.863868254145018,0.012505954021090107,0.14962244261930682,0.23498300937020464,9.859826604777636,,,,,,,,634080.0,,1,0,0,1,1
1789661771117.0,0.02,0.14955142,0.23539393,9.859925,-0.005955931,-0.010995565,0.00015271618,-54.975002,-14.700001,2.25,9.863868254145018,0.012505954021090107,0.14965853091174383,0.23477488392832016,9.859775669319648,,,,,,,,634080.0,,1,0,0,1,1
1789661771127.0,0.03,0.14955142,0.23539393,9.859925,-0.005955931,-0.010995565,0.00015271618,-54.975002,-14.700001,2.25,9.863868254145018,0.012505954021090107,0.14961183228382874,0.2350460006070101,9.859838255194267,,,,,,,,634080.0,,1,0,0,1,1
1789661771137.0,0.04,0.14955142,0.23539393,9.859925,-0.005955931,-0.010995565,0.00015271618,-54.975002,-14.700001,2.25,9.863868254145018,0.012505954021090107,0.14943848013926098,0.23604837196842268,9.860079502252422,,,,,,,,634080.0,,1,0,0,1,1
1789661771147.0,0.05,0.14955142,0.23539393,9.859925,-0.005955931,-0.010995565,0.00015271618,-54.975002,-14.700001,2.25,9.863868254145018,0.012505954021090107,0.14913843587331085,0.23777822100213833,9.860511692547217,,,,,,,,634080.0,,1,0,0,1,1
1789661771157.0,0.06,0.148355,0.24227329,9.861719,-0.005955931,-0.010995565,0.00015271618,-54.975002,-14.700001,2.25,9.865810011754403,0.012505954021090107,0.14877777584244184,0.2398492206285324,9.861057749581422,,,,,,,,634080.0,,1,0,0,1,1
1789661771167.0,0.07,0.148355,0.24227329,9.861719,-0.005955931,-0.010995565,0.00015271618,-54.975002,-14.700001,2.25,9.865810011754403,0.012505954021090107,0.1484604752780157,0.2416602327875328,9.861575986868072,,,,,,,,634080.0,,1,0,0,1,1
1789661771177.0,0.08,0.148355,0.24227329,9.861719,-0.005955931,-0.010995565,0.00015271618,-54.975002,-14.700001,2.25,9.865810011754403,0.012505954021090107,0.14826952894916112,0.24274059657656422,9.86192430601625,,,,,,,,634080.0,,1,0,0,1,1
1789661771187.0,0.09,0.148355,0.24227329,9.861719,-0.005955931,-0.010995565,0.00015271618,-54.975002,-14.700001,2.25,9.865810011754403,0.012505954021090107,0.1482281213077769,0.24297443810545452,9.86201070592745,,,,,,,,634080.0,,1,0,0,1,1
1789661771197.0,0.1,0.148355,0.24227329,9.861719,0.0038179045,0.007788525,-0.0010690133,-54.975002,-14.700001,2.25,9.865810011754403,0.00873958270641809,0.14830275073526183,0.24257165953746235,9.861821366934862,,,,,,,,634080.0,,1,0,0,1,1
1789661771207.0,0.11,0.148355,0.24227329,9.861719,0.0038179045,0.007788525,-0.0010690133,-54.975002,-14.700001,2.25,9.865810011754403,0.00873958270641809,0.14842494305483045,0.24192209644404936,9.861459549025167,,,,,,,,634080.0,,1,0,0,1,1
1789661771217.0,0.12,0.148355,0.24227329,9.861719,0.0038179045,0.007788525,-0.0010690133,-54.975002,-14.475,2.4750001,9.865810011754403,0.00873958270641809,0.1485059776182582,0.24149538001094317,9.86118634370478,,,,,,,,634080.0,,1,0,0,1,1
1789661771227.0,0.13,0.148355,0.24227329,9.861719,0.0038179045,0.007788525,-0.0010690133,-54.975002,-14.475,2.4750001,9.865810011754403,0.00873958270641809,0.14845269983025478,0.2417618023072145,9.861376757864335,,,,,,,,634080.0,,1,0,0,1,1
1789661771237.0,0.14,0.148355,0.24227329,9.861719,0.0038179045,0.007788525,-0.0010690133,-54.975002,-14.475,2.4750001,9.865810011754403,0.00873958270641809,0.148206630611176,0.24301360033346528,9.862323382423494,,,,,,,,634080.0,,1,0,0,1,1
1789661771247.0,0.15,0.148355,0.24227329,9.861719,0.0038179045,0.007788525,-0.0010690133,-54.975002,-14.475,2.4750001,9.865810011754403,0.00873958270641809,0.14779549763029792,0.24512158107723664,9.863979252314547,,,,,,,,634080.0,,1,0,0,1,1
1789661771257.0,0.16,0.1468595,0.25004998,9.868001,0.0038179045,0.007788525,-0.0010690133,-54.975002,-14.475,2.4750001,9.872260958931305,0.00873958270641809,0.1473443037362951,0.24747729786147216,9.86588001776811,,,,,,,,634080.0,,1,0,0,1,1
1789661771267.0,0.17,0.1468595,0.25004998,9.868001,0.0038179045,0.007788525,-0.0010690133,-54.975002,-14.475,2.4750001,9.872260958931305,0.00873958270641809,0.14700777036321436,0.24930841482579907,9.867396414836431,,,,,,,,634080.0,,1,0,0,1,1
1789661771277.0,0.18,0.1468595,0.25004998,9.868001,0.0038179045,0.007788525,-0.0010690133,-54.975002,-14.475,2.4750001,9.872260958931305,0.00873958270641809,0.1468620811135547,0.25018891928865655,9.868155665851672,,,,,,,,634080.0,,1,0,0,1,1
1789661771287.0,0.19,0.1468595,0.25004998,9.868001,0.0038179045,0.007788525,-0.0010690133,-54.975002,-14.475,2.4750001,9.872260958931305,0.00873958270641809,0.14684904490022585,0.25030926961644906,9.868271627116284,,,,,,,,634080.0,,1,0,0,1,1
1789661771297.0,0.2,0.1468595,0.25004998,9.868001,-0.0022907427,-0.0029016074,0.00015271618,-54.975002,-14.475,2.4750001,9.872260958931305,0.003700020250346185,0.14683106487889414,0.25025366091090856,9.868184409328563,,,,,,,,634080.0,,1,0,0,1,1
1789661771307.0,0.21,0.1468595,0.25004998,9.868001,-0.0022907427,-0.0029016074,0.00015271618,-54.975002,-14.475,2.4750001,9.872260958931305,0.003700020250346185,0.14672325841278702,0.2504574317553627,9.868252537205318,,,,,,,,634080.0,,1,0,0,1,1
1789661771317.0,0.22,0.1468595,0.25004998,9.868001,-0.0022907427,-0.0029016074,0.00015271618,-56.025,-14.625001,5.025,9.872260958931305,0.003700020250346185,0.14660227044117966,0.25077251075657975,9.868426981945221,,,,,,,,634080.0,,1,0,0,1,1
1789661771327.0,0.23,0.1468595,0.25004998,9.868001,-0.0022907427,-0.0029016074,0.00015271618,-56.025,-14.625001,5.025,9.872260958931305,0.003700020250346185,0.14669471416984733,0.2504939679534218,9.86825940175608,,,,,,,,634080.0,,1,0,0,1,1
1789661771337.0,0.24,0.1468595,0.25004998,9.868001,-0.0022907427,-0.0029016074,0.00015271618,-56.025,-14.625001,5.025,9.872260958931305,0.003700020250346185,0.1472236693917714,0.24888456556482738,9.867257499849154,,,,,,,,634080.0,,1,0,0,1,1
1789661771347.0,0.25,0.1468595,0.25004998,9.868001,-0.0022907427,-0.0029016074,0.00015271618,-56.025,-14.625001,5.025,9.872260958931305,0.003700020250346185,0.1482098201150218,0.24583935173229843,9.865334360731673,,,,,,,,634080.0,,1,0,0,1,1
1789661771357.0,0.26,0.15074782,0.23778675,9.860224,-0.0022907427,-0.0029016074,0.00015271618,-56.025,-14.625001,5.025,9.864242736971061,0.003700020250346185,0.14939691851186404,0.24213153732083675,9.862978540830225,,,,,,,,634080.0,,1,0,0,1,1
1789661771367.0,0.27,0.15074782,0.23778675,9.860224,-0.0022907427,-0.0029016074,0.00015271618,-56.025,-14.625001,5.025,9.864242736971061,0.003700020250346185,0.15039381291056486,0.23896430828023676,9.860966120153694,,,,,,,,634080.0,,1,0,0,1,1
1789661771377.0,0.28,0.15074782,0.23778675,9.860224,-0.0022907427,-0.0029016074,0.00015271618,-56.025,-14.625001,5.025,9.864242736971061,0.003700020250346185,0.1509295476002352,0.2371817148541212,9.859845221150117,,,,,,,,634080.0,,1,0,0,1,1
1789661771387.0,0.29,0.15074782,0.23778675,9.860224,-0.0022907427,-0.0029016074,0.00015271618,-56.025,-14.625001,5.025,9.864242736971061,0.003700020250346185,0.15100783770290513,0.23681396217629044,9.859632445240845,,,,,,,,634080.0,,1,0,0,1,1
1789661771397.0,0.3,0.15074782,0.23778675,9.860224,-0.0022907427,-0.0029016074,0.00015271618,-56.025,-14.625001,5.025,9.864242736971061,0.003700020250346185,0.15085114658339163,0.23726590221501806,9.859928600683551,,,,,,,,634080.0,,1,0,0,1,1
1789661771407.0,0.31,0.15074782,0.23778675,9.860224,0.0,-0.0009162971,0.00015271618,-56.025,-14.625001,5.025,9.864242736971061,0.0009289362772021568,0.15071368304150742,0.23784998326475665,9.860271518287403,,,,,,,,634080.0,,1,0,0,1,1
1789661771417.0,0.32,0.15074782,0.23778675,9.860224,0.0,-0.0009162971,0.00015271618,-56.025,-14.700001,4.7250004,9.864242736971061,0.0009289362772021568,0.15071809503903913,0.23817308398160897,9.86041081245595,,,,,,,,634080.0,,1,0,0,1,1
1789661771427.0,0.33,0.15074782,0.23778675,9.860224,0.0,-0.0009162971,0.00015271618,-56.025,-14.700001,4.7250004,9.864242736971061,0.0009289362772021568,0.15080857112835017,0.23817004465712746,9.860353257376541,,,,,,,,634080.0,,1,0,0,1,1
1789661771437.0,0.34,0.15074782,0.23778675,9.860224,0.0,-0.0009162971,0.00015271618,-56.025,-14.700001,4.7250004,9.864242736971061,0.0009289362772021568,0.15081987192560234,0.2379244566749038,9.860239950869254,,,,,,,,634080.0,,1,0,0,1,1
1789661771447.0,0.35,0.15074782,0.23778675,9.860224,0.0,-0.0009162971,0.00015271618,-56.025,-14.700001,4.7250004,9.864242736971061,0.0009289362772021568,0.1506061723524751,0.2375192162217511,9.86019769031753,,,,,,,,634080.0,,1,0,0,1,1
1789661771457.0,0.36,0.15074782,0.23778675,9.860224,0.0,-0.0009162971,0.00015271618,-56.025,-14.700001,4.7250004,9.864242736971061,0.0009289362772021568,0.15015155051845558,0.23702292895274982,9.860262155427984,,,,,,,,634080.0,,1,0,0,1,1
1789661771467.0,0.37,0.14895321,0.23599213,9.860523,0.0,-0.0009162971,0.00015271618,-56.025,-14.700001,4.7250004,9.864471256875365,0.0009289362772021568,0.14959007260462637,0.23653766601617837,9.860387759090731,,,,,,,,634080.0,,1,0,0,1,1
1789661771477.0,0.38,0.14895321,0.23599213,9.860523,0.0,-0.0009162971,0.00015271618,-56.025,-14.700001,4.7250004,9.864471256875365,0.0009289362772021568,0.14911759595952903,0.236187701392864,9.860503767105739,,,,,,,,634080.0,,1,0,0,1,1
1789661771487.0,0.39,0.14895321,0.23599213,9.860523,0.0,-0.0009162971,0.00015271618,-56.025,-14.700001,4.7250004,9.864471256875365,0.0009289362772021568,0.14886275269785781,0.23603344892134978,9.860565152851859,,,,,,,,634080.0,,1,0,0,1,1
1789661771497.0,0.4,0.14895321,0.23599213,9.860523,0.0,-0.0009162971,0.00015271618,-56.025,-14.700001,4.7250004,9.864471256875365,0.0009289362772021568,0.14881995205343093,0.23600733938207283,9.860568749357284,,,,,,,,634080.0,,1,0,0,1,1
1789661771507.0,0.41,0.14895321,0.23599213,9.860523,0.0009162971,0.0013744456,0.00015271618,-56.025,-14.700001,4.7250004,9.864471256875365,0.001658922335271173,0.14888636471882102,0.23596107724560705,9.860538538390749,,,,,,,,634080.0,,1,0,0,1,1
1789661771517.0,0.42,0.14895321,0.23599213,9.860523,0.0009162971,0.0013744456,0.00015271618,-55.800003,-14.250001,5.1000004,9.864471256875365,0.001658922335271173,0.14895361653631903,0.23580851303901493,9.860503448889649,,,,,,,,634080.0,,1,0,0,1,1
1789661771527.0,0.43,0.14895321,0.23599213,9.860523,0.0009162971,0.0013744456,0.00015271618,-55.800003,-14.250001,5.1000004,9.864471256875365,0.001658922335271173,0.14897545707654183,0.23565335041145538,9.86048572555106,,,,,,,,634080.0,,1,0,0,1,1
1789661771537.0,0.44,0.14895321,0.23599213,9.860523,0.0009162971,0.0013744456,0.00015271618,-55.800003,-14.250001,5.1000004,9.864471256875365,0.001658922335271173,0.14897276664699433,0.23577886278954654,9.860499838459877,,,,,,,,634080.0,,1,0,0,1,1
1789661771547.0,0.45,0.14895321,0.23599213,9.860523,0.0009162971,0.0013744456,0.00015271618,-55.800003,-14.250001,5.1000004,9.864471256875365,0.001658922335271173,0.14899124459755528,0.23646337280403792,9.860551702823113,,,,,,,,634080.0,,1,0,0,1,1
1789661771557.0,0.46,0.14895321,0.23599213,9.860523,0.0009162971,0.0013744456,0.00015271618,-55.800003,-14.250001,5.1000004,9.864471256875365,0.001658922335271173,0.1490535037650191,0.23773547926612604,9.8606338602402,,,,,,,,634080.0,,1,0,0,1,1
1789661771567.0,0.47,0.14925231,0.24107689,9.860822,0.0009162971,0.0013744456,0.00015271618,-55.800003,-14.250001,5.1000004,9.86489760892714,0.001658922335271173,0.1491409224085095,0.23927978831120025,9.860723927171431,,,,,,,,634080.0,,1,0,0,1,1
1789661771577.0,0.48,0.14925231,0.24107689,9.860822,0.0009162971,0.0013744456,0.00015271618,-55.800003,-14.250001,5.1000004,9.86489760892714,0.001658922335271173,0.14921350053404478,0.2406081289342635,9.860794464526927,,,,,,,,634080.0,,1,0,0,1,1
1789661771587.0,0.49,0.14925231,0.24107689,9.860822,0.0009162971,0.0013744456,0.00015271618,-55.800003,-14.250001,5.1000004,9.86489760892714,0.001658922335271173,0.14924644734538411,0.24136634569364604,9.860829805696454,,,,,,,,634080.0,,1,0,0,1,1
1789661771597.0,0.5,0.14925231,0.24107689,9.860822,0.0009162971,0.0013744456,0.00015271618,-55.800003,-14.250001,5.1000004,9.86489760892714,0.001658922335271173,0.14925085247229802,0.2415170565007522,9.86083532249489,,,,,,,,634080.0,,1,0,0,1,1
1789661771607.0,0.51,0.14925231,0.24107689,9.860822,0.0009162971,0.0013744456,0.00015271618,-55.800003,-14.250001,5.1000004,9.86489760892714,0.001658922335271173,0.14926068405381948,0.24128158794000124,9.860830442484403,,,,,,,,634080.0,,1,0,0,1,1
1789661771617.0,0.52,0.14925231,0.24107689,9.860822,0.00015271618,0.0006108647,0.00015271618,-56.550003,-14.85,5.1000004,9.86489760892714,0.0006479198599932517,0.14929598067240615,0.24095611930069888,9.860831367956454,,,,,,,,634080.0,,1,0,0,1,1
1789661771627.0,0.53,0.14925231,0.24107689,9.860822,0.00015271618,0.0006108647,0.00015271618,-56.550003,-14.85,5.1000004,9.86489760892714,0.0006479198599932517,0.14933155076900567,0.24077510855457798,9.860837411528056,,,,,,,,634080.0,,1,0,0,1,1
1789661771637.0,0.54,0.14925231,0.24107689,9.860822,0.00015271618,0.0006108647,0.00015271618,-56.550003,-14.85,5.1000004,9.86489760892714,0.0006479198599932517,0.1493001945731615,0.24087365975936473,9.860831262588105,,,,,,,,634080.0,,1,0,0,1,1
1789661771647.0,0.55,0.14925231,0.24107689,9.860822,0.00015271618,0.0006108647,0.00015271618,-56.550003,-14.85,5.1000004,9.86489760892714,0.0006479198599932517,0.14913742611986122,0.24128734150656014,9.860793328356236,,,,,,,,634080.0,,1,0,0,1,1
1789661771657.0,0.56,0.14925231,0.24107689,9.860822,0.00015271618,0.0006108647,0.00015271618,-56.550003,-14.85,5.1000004,9.86489760892714,0.0006479198599932517,0.14883903312451643,0.24194096688536146,9.860719721128868,,,,,,,,634080.0,,1,0,0,1,1
1789661771667.0,0.57,0.1480559,0.2434697,9.860523,0.00015271618,0.0006108647,0.00015271618,-56.550003,-14.85,5.1000004,9.864639470242787,0.0006479198599932517,0.14848103834392606,0.2426584011145938,9.860629111399868,,,,,,,,634080.0,,1,0,0,1,1
1789661771677.0,0.58,0.1480559,0.2434697,9.860523,0.00015271618,0.0006108647,0.00015271618,-56.550003,-14.85,5.1000004,9.864639470242787,0.0006479198599932517,0.14817618526174625,0.24323986603402328,9.860551559167217,,,,,,,,634080.0,,1,0,0,1,1
1789661771687.0,0.59,0.1480559,0.2434697,9.860523,0.00015271618,0.0006108647,0.00015271618,-56.550003,-14.85,5.1000004,9.864639470242787,0.0006479198599932517,0.14800065680312163,0.24357110328461784,9.860508408425328,,,,,,,,634080.0,,1,0,0,1,1
1789661771697.0,0.6,0.1480559,0.2434697,9.860523,0.00015271618,0.0006108647,0.00015271618,-56.550003,-14.85,5.1000004,9.864639470242787,0.0006479198599932517,0.14795522457230068,0.24366884943007122,9.860500373317869,,,,,,,,634080.0,,1,0,0,1,1
1789661771707.0,0.61,0.1480559,0.2434697,9.860523,0.00015271618,0.0006108647,0.00015271618,-56.550003,-14.85,5.1000004,9.864639470242787,0.0006479198599932517,0.14798787712756484,0.24362486408874887,9.86051192440887,,,,,,,,634080.0,,1,0,0,1,1
1789661771717.0,0.62,0.1480559,0.2434697,9.860523,-0.0010690133,0.0006108647,-0.0010690133,-55.425003,-15.075001,2.8500001,9.864639470242787,0.0016305626491674185,0.1480444804838417,0.2435166164998183,9.860525000489757,,,,,,,,634080.0,,1,0,0,1,1
1789661771727.0,0.63,0.1480559,0.2434697,9.860523,-0.0010690133,0.0006108647,-0.0010690133,-55.425003,-15.075001,2.8500001,9.864639470242787,0.0016305626491674185,0.1480969477275727,0.24337810801180865,9.860529857208748,,,,,,,,634080.0,,1,0,0,1,1
1789661771737.0,0.64,0.1480559,0.2434697,9.860523,-0.0010690133,0.0006108647,-0.0010690133,-55.425003,-15.075001,2.8500001,9.864639470242787,0.0016305626491674185,0.14813250732772845,0.2432488666488173,9.860527042276496,,,,,,,,634080.0,,1,0,0,1,1
1789661771747.0,0.65,0.1480559,0.2434697,9.860523,-0.0010690133,0.0006108647,-0.0010690133,-55.425003,-15.075001,2.8500001,9.864639470242787,0.0016305626491674185,0.14813018895244462,0.24322712711762656,9.86052257516801,,,,,,,,634080.0,,1,0,0,1,1
1789661771757.0,0.66,0.1480559,0.2434697,9.860523,-0.0010690133,0.0006108647,-0.0010690133,-55.425003,-15.075001,2.8500001,9.864639470242787,0.0016305626491674185,0.1480629303347914,0.2434312251226515,9.8605216323748,,,,,,,,634080.0,,1,0,0,1,1
1789661771767.0,0.67,0.1480559,0.2434697,9.860523,-0.0009162971,-0.00045814854,-0.0010690133,-55.425003,-15.075001,2.8500001,9.864639470242787,0.0014806383406319827,0.14793746716768796,0.24384969728901618,9.860524714768237,,,,,,,,634080.0,,1,0,0,1,1
1789661771777.0,0.68,0.1480559,0.2434697,9.860523,-0.0009162971,-0.00045814854,-0.0010690133,-55.425003,-15.075001,2.8500001,9.864639470242787,0.0014806383406319827,0.1478392416755521,0.24419110889869616,9.860527692975603,,,,,,,,634080.0,,1,0,0,1,1
1789661771787.0,0.69,0.1480559,0.2434697,9.860523,-0.0009162971,-0.00045814854,-0.0010690133,-55.425003,-15.075001,2.8500001,9.864639470242787,0.0014806383406319827,0.1479237062642965,0.2439203769362125,9.860525287651374,,,,,,,,634080.0,,1,0,0,1,1
1789661771797.0,0.7,0.1480559,0.2434697,9.860523,-0.0009162971,-0.00045814854,-0.0010690133,-55.425003,-15.075001,2.8500001,9.864639470242787,0.0014806383406319827,0.14832435240172864,0.2425727687429202,9.860516226486284,,,,,,,,634080.0,,1,0,0,1,1
1789661771807.0,0.71,0.1480559,0.2434697,9.860523,-0.0009162971,-0.00045814854,-0.0010690133,-55.425003,-15.075001,2.8500001,9.864639470242787,0.0014806383406319827,0.14902900338970407,0.2401717304845721,9.86050683314093,,,,,,,,634080.0,,1,0,0,1,1
1789661771817.0,0.72,0.15074782,0.23419751,9.860523,-0.0009162971,-0.00045814854,-0.0010690133,-55.800003,-14.775001,4.125,9.864455748415823,0.0014806383406319827,0.1498392390419044,0.2373702162012785,9.860508976597895,,,,,,,,634080.0,,1,0,0,1,1
1789661771827.0,0.73,0.15074782,0.23419751,9.860523,-0.0009162971,-0.00045814854,-0.0010690133,-55.800003,-14.775001,4.125,9.864455748415823,0.0014806383406319827,0.15048160441809227,0.23509082800622277,9.860530476855581,,,,,,,,634080.0,,1,0,0,1,1
1789661771837.0,0.74,0.15074782,0.23419751,9.860523,-0.0009162971,-0.00045814854,-0.0010690133,-55.800003,-14.775001,4.125,9.864455748415823,0.0014806383406319827,0.15079681529565178,0.23390952686858077,9.860562427584236,,,,,,,,634080.0,,1,0,0,1,1
1789661771847.0,0.75,0.15074782,0.23419751,9.860523,-0.0009162971,-0.00045814854,-0.0010690133,-55.800003,-14.775001,4.125,9.864455748415823,0.0014806383406319827,0.15084344991528906,0.2337112439247914,9.860575237516962,,,,,,,,634080.0,,1,0,0,1,1
1789661771857.0,0.76,0.15074782,0.23419751,9.860523,-0.0009162971,-0.00045814854,-0.0010690133,-55.800003,-14.775001,4.125,9.864455748415823,0.0014806383406319827,0.15082330351670617,0.2338986411733134,9.860535648546803,,,,,,,,634080.0,,1,0,0,1,1
1789661771867.0,0.77,0.15074782,0.23419751,9.860523,-0.00030543236,-0.0006108647,0.00015271618,-55.800003,-14.775001,4.125,9.864455748415823,0.00069983343723707,0.15089042680709047,0.23394125437691185,9.860443696269167,,,,,,,,634080.0,,1,0,0,1,1
1789661771877.0,0.78,0.15074782,0.23419751,9.860523,-0.00030543236,-0.0006108647,0.00015271618,-55.800003,-14.775001,4.125,9.864455748415823,0.00069983343723707,0.15099675704115065,0.23380973159161708,9.860365241510904,,,,,,,,634080.0,,1,0,0,1,1
1789661771887.0,0.79,0.15074782,0.23419751,9.860523,-0.00030543236,-0.0006108647,0.00015271618,-55.800003,-14.775001,4.125,9.864455748415823,0.00069983343723707,0.15089975827447846,0.23397754276295626,9.86042175456516,,,,,,,,634080.0,,1,0,0,1,1
1789661771897.0,0.8,0.15074782,0.23419751,9.860523,-0.00030543236,-0.0006108647,0.00015271618,-55.800003,-14.775001,4.125,9.864455748415823,0.00069983343723707,0.15034508996698218,0.234999899190579,9.860719527580773,,,,,,,,634080.0,,1,0,0,1,1
1789661771907.0,0.81,0.15074782,0.23419751,9.860523,-0.00030543236,-0.0006108647,0.00015271618,-55.800003,-14.775001,4.125,9.864455748415823,0.00069983343723707,0.14929860024314037,0.2369901855023,9.861256915330072,,,,,,,,634080.0,,1,0,0,1,1
1789661771917.0,0.82,0.14656039,0.24227329,9.862617,-0.00030543236,-0.0006108647,0.00015271618,-55.800003,-14.775001,4.125,9.866680818981294,0.00069983343723707,0.1480317584803111,0.2394250490085659,9.861892238410373,,,,,,,,634080.0,,1,0,0,1,1
1789661771927.0,0.83,0.14656039,0.24227329,9.862617,-0.00030543236,-0.0006108647,0.00015271618,-55.800003,-14.775001,4.125,9.866680818981294,0.00069983343723707,0.14696316994207484,0.2414713594679786,9.86242058489234,,,,,,,,634080.0,,1,0,0,1,1
1789661771937.0,0.84,0.14656039,0.24227329,9.862617,-0.00030543236,-0.0006108647,0.00015271618,-55.800003,-14.775001,4.125,9.866680818981294,0.00069983343723707,0.14637874918570043,0.24256869262362393,9.862706114581243,,,,,,,,634080.0,,1,0,0,1,1
1789661771947.0,0.85,0.14656039,0.24227329,9.862617,-0.00030543236,-0.0006108647,0.00015271618,-55.800003,-14.775001,4.125,9.866680818981294,0.00069983343723707,0.1462697851280015,0.24276565584156395,9.862757546907723,,,,,,,,634080.0,,1,0,0,1,1
1789661771957.0,0.86,0.14656039,0.24227329,9.862617,-0.00030543236,-0.0006108647,0.00015271618,-55.800003,-14.775001,4.125,9.866680818981294,0.00069983343723707,0.14640539508718947,0.24255859478664862,9.8626908664285,,,,,,,,634080.0,,1,0,0,1,1
1789661771967.0,0.87,0.14656039,0.24227329,9.862617,0.00015271618,0.0006108647,-0.0010690133,-56.475002,-14.85,5.025,9.866680818981294,0.001240672135947597,0.14654064983999446,0.24242858061674566,9.862626804949453,,,,,,,,634080.0,,1,0,0,1,1
1789661771977.0,0.88,0.14656039,0.24227329,9.862617,0.00015271618,0.0006108647,-0.0010690133,-56.475002,-14.85,5.025,9.866680818981294,0.001240672135947597,0.14657856701555627,0.24247171289431402,9.862611430972963,,,,,,,,634080.0,,1,0,0,1,1
1789661771987.0,0.89,0.14656039,0.24227329,9.862617,0.00015271618,0.0006108647,-0.0010690133,-56.475002,-14.85,5.025,9.866680818981294,0.001240672135947597,0.14658583325724697,0.24237885801348896,9.862609002442,,,,,,,,634080.0,,1,0,0,1,1
1789661771997.0,0.9,0.14656039,0.24227329,9.862617,0.00015271618,0.0006108647,-0.0010690133,-56.475002,-14.85,5.025,9.866680818981294,0.001240672135947597,0.1466883195093636,0.2417432935635457,9.862554876655715,,,,,,,,634080.0,,1,0,0,1,1
1789661772007.0,0.91,0.14656039,0.24227329,9.862617,0.00015271618,0.0006108647,-0.0010690133,-56.475002,-14.85,5.025,9.866680818981294,0.001240672135947597,0.1469456379683255,0.2404466970091938,9.862419725827763,,,,,,,,634080.0,,1,0,0,1,1
1789661772017.0,0.92,0.1477568,0.23688944,9.862019,0.00015271618,0.0006108647,-0.0010690133,-56.475002,-14.85,5.025,9.865970172015054,0.001240672135947597,0.14729966309410164,0.23881398592827568,9.862236791586207,,,,,,,,634080.0,,1,0,0,1,1
1789661772027.0,0.93,0.1477568,0.23688944,9.862019,0.00015271618,0.0006108647,-0.0010690133,-56.475002,-14.85,5.025,9.865970172015054,0.001240672135947597,0.14762435482030165,0.23740599189650372,9.862076024586706,,,,,,,,634080.0,,1,0,0,1,1
1789661772037.0,0.94,0.1477568,0.23688944,9.862019,0.00015271618,0.0006108647,-0.0010690133,-56.475002,-14.85,5.025,9.865970172015054,0.001240672135947597,0.14782084079971108,0.23663073711053073,9.861991298358202,,,,,,,,634080.0,,1,0,0,1,1
1789661772047.0,0.95,0.1477568,0.23688944,9.862019,0.00015271618,0.0006108647,-0.0010690133,-56.475002,-14.85,5.025,9.865970172015054,0.001240672135947597,0.14787313993883597,0.23650426673645414,9.861985099974687,,,,,,,,634080.0,,1,0,0,1,1
1789661772057.0,0.96,0.1477568,0.23688944,9.862019,0.00015271618,0.0006108647,-0.0010690133,-56.475002,-14.85,5.025,9.865970172015054,0.001240672135947597,0.1478309747718119,0.23672359581609287,9.862014516098265,,,,,,,,634080.0,,1,0,0,1,1
1789661772067.0,0.97,0.1477568,0.23688944,9.862019,-0.0007635809,-0.0012217294,-0.0010690133,-55.800003,-14.925,4.425,9.865970172015054,0.0017940089055648693,0.14775697768767934,0.2369322284538093,9.862027663431267,,,,,,,,634080.0,,1,0,0,1,1
1789661772077.0,0.98,0.1477568,0.23688944,9.862019,-0.0007635809,-0.0012217294,-0.0010690133,-55.800003,-14.925,4.425,9.865970172015054,0.0017940089055648693,0.14769373876562958,0.23695080293319704,9.862002717032844,,,,,,,,634080.0,,1,0,0,1,1
1789661772087.0,0.99,0.1477568,0.23688944,9.862019,-0.0007635809,-0.0012217294,-0.0010690133,-55.800003,-14.925,4.425,9.865970172015054,0.0017940089055648693,0.147668366533582,0.2368411016886053,9.86196611566463,,,,,,,,634080.0,,1,0,0,1,1
1789661772097.0,1.0,0.1477568,0.23688944,9.862019,-0.0007635809,-0.0012217294,-0.0010690133,-55.800003,-14.925,4.425,9.865970172015054,0.0017940089055648693,0.14770919921693434,0.23681120345236797,9.86197900600647,,,,,,,,634080.0,,1,0,0,1,1
1789661772107.0,1.01,0.1477568,0.23688944,9.862019,-0.0007635809,-0.0012217294,-0.0010690133,-55.800003,-14.925,4.425,9.865970172015054,0.0017940089055648693,0.1478424855295933,0.2370468541213211,9.862096404164234,,,,,,,,634080.0,,1,0,0,1,1
1789661772117.0,1.02,0.1477568,0.23688944,9.862019,-0.0007635809,-0.0012217294,-0.0010690133,-56.4,-14.775001,5.8500004,9.865970172015054,0.0017940089055648693,0.1480669374288147,0.23757342376363597,9.862322802818525,,,,,,,,634080.0,,1,0,0,1,1
1789661772127.0,1.03,0.1486541,0.23898315,9.862916,-0.0007635809,-0.0012217294,-0.0010690133,-56.4,-14.775001,5.8500004,9.866930779654163,0.0017940089055648693,0.14833635750209537,0.23823334113014058,9.862598855233033,,,,,,,,634080.0,,1,0,0,1,1
1789661772137.0,1.04,0.1486541,0.23898315,9.862916,-0.0007635809,-0.0012217294,-0.0010690133,-56.4,-14.775001,5.8500004,9.866930779654163,0.0017940089055648693,0.148576508439978,0.23879352956703437,9.862835273340767,,,,,,,,634080.0,,1,0,0,1,1
1789661772147.0,1.05,0.1486541,0.23898315,9.862916,-0.0007635809,-0.0012217294,-0.0010690133,-56.4,-14.775001,5.8500004,9.866930779654163,0.0017940089055648693,0.14872481017715958,0.23909867527551623,9.862968664535696,,,,,,,,634080.0,,1,0,0,1,1
1789661772157.0,1.06,0.1486541,0.23898315,9.862916,-0.0007635809,-0.0012217294,-0.0010690133,-56.4,-14.775001,5.8500004,9.866930779654163,0.0017940089055648693,0.1487582439315266,0.23914995054818594,9.862993498169764,,,,,,,,634080.0,,1,0,0,1,1
1789661772167.0,1.07,0.1486541,0.23898315,9.862916,-0.0007635809,-0.0012217294,-0.0010690133,-56.4,-14.775001,5.8500004,9.866930779654163,0.0017940089055648693,0.14869499222131383,0.23906340589495823,9.862950669094847,,,,,,,,634080.0,,1,0,0,1,1
1789661772177.0,1.08,0.1486541,0.23898315,9.862916,0.005345066,0.012217294,0.0013744456,-56.4,-14.775001,5.8500004,9.866930779654163,0.01340600999306473,0.14858609134608777,0.23896747477838315,9.862893788290771,,,,,,,,634080.0,,1,0,0,1,1
1789661772187.0,1.09,0.1486541,0.23898315,9.862916,0.005345066,0.012217294,0.0013744456,-56.4,-14.775001,5.8500004,9.866930779654163,0.01340600999306473,0.14851080946462955,0.2389285148675663,9.862863986315373,,,,,,,,634080.0,,1,0,0,1,1
1789661772197.0,1.1,0.1486541,0.23898315,9.862916,0.005345066,0.012217294,0.0013744456,-56.4,-14.775001,5.8500004,9.866930779654163,0.01340600999306473,0.1485622381201276,0.23894288572694505,9.862882435698383,,,,,,,,634080.0,,1,0,0,1,1
1789661772207.0,1.11,0.1486541,0.23898315,9.862916,0.005345066,0.012217294,0.0013744456,-56.4,-14.775001,5.8500004,9.866930779654163,0.01340600999306473,0.14880354375126323,0.23897415207076922,9.862950065705142,,,,,,,,634080.0,,1,0,0,1,1
1789661772217.0,1.12,0.1486541,0.23898315,9.862916,0.005345066,0.012217294,0.0013744456,-55.95,-15.000001,5.4750004,9.866930779654163,0.01340600999306473,0.14921126052947958,0.23899331691883763,9.863046452362054,,,,,,,,634080.0,,1,0,0,1,1
1789661772227.0,1.13,0.15014961,0.23898315,9.8632145,0.005345066,0.012217294,0.0013744456,-55.95,-15.000001,5.4750004,9.867251802015458,0.01340600999306473,0.14966189310267444,0.2389955173812018,9.86313442029653,,,,,,,,634080.0,,1,0,0,1,1
1789661772237.0,1.14,0.15014961,0.23898315,9.8632145,0.005345066,0.012217294,0.0013744456,-55.95,-15.000001,5.4750004,9.867251802015458,0.01340600999306473,0.14999997005879218,0.2389921438226323,9.863179819967957,,,,,,,,634080.0,,1,0,0,1,1
1789661772247.0,1.15,0.15014961,0.23898315,9.8632145,0.005345066,0.012217294,0.0013744456,-55.95,-15.000001,5.4750004,9.867251802015458,0.01340600999306473,0.15014779081223528,0.23899307081159232,9.863179334867963,,,,,,,,634080.0,,1,0,0,1,1
1789661772257.0,1.16,0.15014961,0.23898315,9.8632145,0.005345066,0.012217294,0.0013744456,-55.95,-15.000001,5.4750004,9.867251802015458,0.01340600999306473,0.15016223285631694,0.23899521702153884,9.863171540530772,,,,,,,,634080.0,,1,0,0,1,1
1789661772267.0,1.17,0.15014961,0.23898315,9.8632145,0.0013744456,0.0039706207,-0.00015271618,-55.95,-15.000001,5.4750004,9.867251802015458,0.00420455130569977,0.1501800216127802,0.23898598665952067,9.86321071247581,,,,,,,,634080.0,,1,0,0,1,1
1789661772277.0,1.18,0.15014961,0.23898315,9.8632145,0.0013744456,0.0039706207,-0.00015271618,-55.95,-15.000001,5.4750004,9.867251802015458,0.00420455130569977,0.15028577399304263,0.23895930191020956,9.863310712517302,,,,,,,,634080.0,,1,0,0,1,1
1789661772287.0,1.19,0.15014961,0.23898315,9.8632145,0.0013744456,0.0039706207,-0.00015271618,-55.95,-15.000001,5.4750004,9.867251802015458,0.00420455130569977,0.1504037007606582,0.23893225855968428,9.863398655638724,,,,,,,,634080.0,,1,0,0,1,1
1789661772297.0,1.2,0.15014961,0.23898315,9.8632145,0.0013744456,0.0039706207,-0.00015271618,-55.95,-15.000001,5.4750004,9.867251802015458,0.00420455130569977,0.15030951209244542,0.2389467628190593,9.863328908529105,,,,,,,,634080.0,,1,0,0,1,1
1789661772307.0,1.21,0.15014961,0.23898315,9.8632145,0.0013744456,0.0039706207,-0.00015271618,-55.95,-15.000001,5.4750004,9.867251802015458,0.00420455130569977,0.1497829681545084,0.23904845653224743,9.862975229497302,,,,,,,,634080.0,,1,0,0,1,1
1789661772317.0,1.22,0.15014961,0.23898315,9.8632145,0.0013744456,0.0039706207,-0.00015271618,-55.125004,-14.85,2.5500002,9.867251802015458,0.00420455130569977,0.1488040776132299,0.23925413433932055,9.862347360876523,,,,,,,,634080.0,,1,0,0,1,1
1789661772327.0,1.23,0.14626129,0.23988047,9.860822,0.0013744456,0.0039706207,-0.00015271618,-55.125004,-14.85,2.5500002,9.864823643660534,0.00420455130569977,0.14762485128663272,0.2395329426211041,9.861626738289244,,,,,,,,634080.0,,1,0,0,1,1
1789661772337.0,1.24,0.14626129,0.23988047,9.860822,0.0013744456,0.0039706207,-0.00015271618,-55.125004,-14.85,2.5500002,9.864823643660534,0.00420455130569977,0.1466277504813521,0.23981588392639241,9.861061679591343,,,,,,,,634080.0,,1,0,0,1,1
1789661772347.0,1.25,0.14626129,0.23988047,9.860822,0.0013744456,0.0039706207,-0.00015271618,-55.125004,-14.85,2.5500002,9.864823643660534,0.00420455130569977,0.14607685266856163,0.2400209435026056,9.860792156583893,,,,,,,,634080.0,,1,0,0,1,1
1789661772357.0,1.26,0.14626129,0.23988047,9.860822,0.0013744456,0.0039706207,-0.00015271618,-55.125004,-14.85,2.5500002,9.864823643660534,0.00420455130569977,0.1459732249920765,0.24007558861262537,9.860755364915512,,,,,,,,634080.0,,1,0,0,1,1
1789661772367.0,1.27,0.14626129,0.23988047,9.860822,0.0013744456,0.0039706207,-0.00015271618,-55.125004,-14.85,2.5500002,9.864823643660534,0.00420455130569977,0.14611572209583434,0.23994439400720444,9.860758971631553,,,,,,,,634080.0,,1,0,0,1,1
1789661772377.0,1.28,0.14626129,0.23988047,9.860822,0.00015271618,0.0018325942,-0.0007635809,-55.125004,-14.85,2.5500002,9.864823643660534,0.001991175412753041,0.14627753064765603,0.23967985153191051,9.860665522728334,,,,,,,,634080.0,,1,0,0,1,1
1789661772387.0,1.29,0.14626129,0.23988047,9.860822,0.00015271618,0.0018325942,-0.0007635809,-55.125004,-14.85,2.5500002,9.864823643660534,0.001991175412753041,0.1463421701869957,0.23947162170943778,9.860542174991934,,,,,,,,634080.0,,1,0,0,1,1
1789661772397.0,1.3,0.14626129,0.23988047,9.860822,0.00015271618,0.0018325942,-0.0007635809,-55.125004,-14.85,2.5500002,9.864823643660534,0.001991175412753041,0.1463228756261903,0.2396166293581285,9.860649794258567,,,,,,,,634080.0,,1,0,0,1,1
1789661772407.0,1.31,0.14626129,0.23988047,9.860822,0.00015271618,0.0018325942,-0.0007635809,-55.125004,-14.85,2.5500002,9.864823643660534,0.001991175412753041,0.14629599288168582,0.24035895482940173,9.861253585719608,,,,,,,,634080.0,,1,0,0,1,1
1789661772417.0,1.32,0.14626129,0.23988047,9.860822,0.00015271618,0.0018325942,-0.0007635809,-55.575,-14.400001,3.3000002,9.864823643660534,0.001991175412753041,0.14632261751218054,0.24167838968983513,9.862382007258214,,,,,,,,634080.0,,1,0,0,1,1
1789661772427.0,1.33,0.14656039,0.24496523,9.865309,0.00015271618,0.0018325942,-0.0007635809,-55.575,-14.400001,3.3000002,9.869438159151052,0.001991175412753041,0.1464110460783508,0.2432205578286899,9.863739429748225,,,,,,,,634080.0,,1,0,0,1,1
1789661772437.0,1.34,0.14656039,0.24496523,9.865309,0.00015271618,0.0018325942,-0.0007635809,-55.575,-14.400001,3.3000002,9.869438159151052,0.001991175412753041,0.1465259380126362,0.24448688225424095,9.864877230682811,,,,,,,,634080.0,,1,0,0,1,1
1789661772447.0,1.35,0.14656039,0.24496523,9.865309,0.00015271618,0.0018325942,-0.0007635809,-55.575,-14.400001,3.3000002,9.869438159151052,0.001991175412753041,0.14661755336946478,0.24515768976396426,9.865493776188316,,,,,,,,634080.0,,1,0,0,1,1
1789661772457.0,1.36,0.14656039,0.24496523,9.865309,0.00015271618,0.0018325942,-0.0007635809,-55.575,-14.400001,3.3000002,9.869438159151052,0.001991175412753041,0.14664516714901663,0.2452739056163786,9.865606805967165,,,,,,,,634080.0,,1,0,0,1,1
1789661772467.0,1.37,0.14656039,0.24496523,9.865309,0.00015271618,0.0018325942,-0.0007635809,-55.575,-14.400001,3.3000002,9.869438159151052,0.001991175412753041,0.14659189981255402,0.2451360043091676,9.865471402243442,,,,,,,,634080.0,,1,0,0,1,1
1789661772477.0,1.38,0.14656039,0.24496523,9.865309,-0.0007635809,-0.00030543236,0.00015271618,-55.575,-14.400001,3.3000002,9.869438159151052,0.000836460966820193,0.14648169685424234,0.24503520463797915,9.865349016404846,,,,,,,,634080.0,,1,0,0,1,1
1789661772487.0,1.39,0.14656039,0.24496523,9.865309,-0.0007635809,-0.00030543236,0.00015271618,-55.575,-14.400001,3.3000002,9.869438159151052,0.000836460966820193,0.1463944256086151,0.24504364434972337,9.865327147308786,,,,,,,,634080.0,,1,0,0,1,1
1789661772497.0,1.4,0.14656039,0.24496523,9.865309,-0.0007635809,-0.00030543236,0.00015271618,-55.575,-14.400001,3.3000002,9.869438159151052,0.000836460966820193,0.14645160684188802,0.24500386294761514,9.865305384768702,,,,,,,,634080.0,,1,0,0,1,1
1789661772507.0,1.41,0.14656039,0.24496523,9.865309,-0.0007635809,-0.00030543236,0.00015271618,-55.575,-14.400001,3.3000002,9.869438159151052,0.000836460966820193,0.1467525811659115,0.24469795240448283,9.865123928800667,,,,,,,,634080.0,,1,0,0,1,1
1789661772517.0,1.42,0.14656039,0.24496523,9.865309,-0.0007635809,-0.00030543236,0.00015271618,-55.575,-15.150001,3.7500002,9.869438159151052,0.000836460966820193,0.14729096864846955,0.2440559358800284,9.86471926880645,,,,,,,,634080.0,,1,0,0,1,1
1789661772527.0,1.43,0.1486541,0.24227329,9.863514,-0.0007635809,-0.00030543236,0.00015271618,-55.575,-15.150001,3.7500002,9.86760876893132,0.000836460966820193,0.14792670805799743,0.24323921017176334,9.864186275018696,,,,,,,,634080.0,,1,0,0,1,1
1789661772537.0,1.44,0.1486541,0.24227329,9.863514,-0.0007635809,-0.00030543236,0.00015271618,-55.575,-15.150001,3.7500002,9.86760876893132,0.000836460966820193,0.14845975154607605,0.2425335149787272,9.863706929061502,,,,,,,,634080.0,,1,0,0,1,1
1789661772547.0,1.45,0.1486541,0.24227329,9.863514,-0.0007635809,-0.00030543236,0.00015271618,-55.575,-15.150001,3.7500002,9.86760876893132,0.000836460966820193,0.14875514531715775,0.24214733840687272,9.863419125528521,,,,,,,,634080.0,,1,0,0,1,1
1789661772557.0,1.46,0.1486541,0.24227329,9.863514,-0.0007635809,-0.00030543236,0.00015271618,-55.575,-15.150001,3.7500002,9.86760876893132,0.000836460966820193,0.14881360871475574,0.24208732847234038,9.863341874067613,,,,,,,,634080.0,,1,0,0,1,1
1789661772567.0,1.47,0.1486541,0.24227329,9.863514,-0.0007635809,-0.00030543236,0.00015271618,-55.575,-15.150001,3.7500002,9.86760876893132,0.000836460966820193,0.14873784787217617,0.24219561109293225,9.863402813486378,,,,,,,,634080.0,,1,0,0,1,1
1789661772577.0,1.48,0.1486541,0.24227329,9.863514,-0.0015271618,-0.0010690133,0.0009162971,-55.575,-15.150001,3.7500002,9.86760876893132,0.002077164647885319,0.14864328081531797,0.24228908216443792,9.863513401941509,,,,,,,,634080.0,,1,0,0,1,1
1789661772587.0,1.49,0.1486541,0.24227329,9.863514,-0.0015271618,-0.0010690133,0.0009162971,-55.575,-15.150001,3.7500002,9.86760876893132,0.002077164647885319,0.14859369629343988,0.24228256178417074,9.863612502220553,,,,,,,,634080.0,,1,0,0,1,1
1789661772597.0,1.5,0.1486541,0.24227329,9.863514,-0.0015271618,-0.0010690133,0.0009162971,-55.575,-15.150001,3.7500002,9.86760876893132,0.002077164647885319,0.14859630537746643,0.24222244895390732,9.863655796970663,,,,,,,,634080.0,,1,0,0,1,1
1789661772607.0,1.51,0.1486541,0.24227329,9.863514,-0.0015271618,-0.0010690133,0.0009162971,-55.575,-15.150001,3.7500002,9.86760876893132,0.002077164647885319,0.1486335783443989,0.24222855498897217,9.863591733197106,,,,,,,,634080.0,,1,0,0,1,1
1789661772617.0,1.52,0.1486541,0.24227329,9.863514,-0.0015271618,-0.0010690133,0.0009162971,-56.025,-14.85,3.9,9.86760876893132,0.002077164647885319,0.14869160919991192,0.24238879215545575,9.863372360192177,,,,,,,,634080.0,,1,0,0,1,1
1789661772627.0,1.53,0.1486541,0.24227329,9.863514,-0.0015271618,-0.0010690133,0.0009162971,-56.025,-14.85,3.9,9.86760876893132,0.002077164647885319,0.14876524729706578,0.2426742444054692,9.862998611318053,,,,,,,,634080.0,,1,0,0,1,1
1789661772637.0,1.54,0.14895321,0.2431706,9.862019,-0.0015271618,-0.0010690133,0.0009162971,-56.025,-14.85,3.9,9.866140975874744,0.002077164647885319,0.14884847463419607,0.2429407758465347,9.862548893480099,,,,,,,,634080.0,,1,0,0,1,1
1789661772647.0,1.55,0.14895321,0.2431706,9.862019,-0.0015271618,-0.0010690133,0.0009162971,-56.025,-14.85,3.9,9.866140975874744,0.002077164647885319,0.14892767441780289,0.2430376633016401,9.86214879625493,,,,,,,,634080.0,,1,0,0,1,1
1789661772657.0,1.56,0.14895321,0.2431706,9.862019,-0.0015271618,-0.0010690133,0.0009162971,-56.025,-14.85,3.9,9.866140975874744,0.002077164647885319,0.1489841590868504,0.24295747920650798,9.861902907420667,,,,,,,,634080.0,,1,0,0,1,1
1789661772667.0,1.57,0.14895321,0.2431706,9.862019,-0.0015271618,-0.0010690133,0.0009162971,-56.025,-14.85,3.9,9.866140975874744,0.002077164647885319,0.14900097508375293,0.24289642778415385,9.861847841474757,,,,,,,,634080.0,,1,0,0,1,1
1789661772677.0,1.58,0.14895321,0.2431706,9.862019,-0.0009162971,-0.00045814854,-0.00015271618,-56.025,-14.85,3.9,9.866140975874744,0.0010357715442153902,0.1489710115586562,0.2431236888403255,9.861951020036347,,,,,,,,634080.0,,1,0,0,1,1
1789661772687.0,1.59,0.14895321,0.2431706,9.862019,-0.0009162971,-0.00045814854,-0.00015271618,-56.025,-14.85,3.9,9.866140975874744,0.0010357715442153902,0.14890840468015953,0.2436924948036554,9.862127298986039,,,,,,,,634080.0,,1,0,0,1,1
1789661772697.0,1.6,0.14895321,0.2431706,9.862019,-0.0009162971,-0.00045814854,-0.00015271618,-56.025,-14.85,3.9,9.866140975874744,0.0010357715442153902,0.1488586384112233,0.2441934969389512,9.862248616919144,,,,,,,,634080.0,,1,0,0,1,1
1789661772707.0,1.61,0.14895321,0.2431706,9.862019,-0.0009162971,-0.00045814854,-0.00015271618,-55.800003,-15.000001,3.9,9.866140975874744,0.0010357715442153902,0.1488911190933292,0.24382123998153538,9.862166876805027,,,,,,,,634080.0,,1,0,0,1,1
1789661772717.0,1.62,0.14895321,0.2431706,9.862019,-0.0009162971,-0.00045814854,-0.00015271618,-55.800003,-15.000001,3.9,9.866140975874744,0.0010357715442153902,0.14906284243223727,0.24186163448541514,9.861782019395557,,,,,,,,634080.0,,1,0,0,1,1
1789661772727.0,1.63,0.14895321,0.2431706,9.862019,-0.0009162971,-0.00045814854,-0.00015271618,-55.800003,-15.000001,3.9,9.866140975874744,0.0010357715442153902,0.1493704832340248,0.2383241157110366,9.861130925543083,,,,,,,,634080.0,,1,0,0,1,1
1789661772737.0,1.64,0.15014961,0.22941187,9.859626,-0.0009162971,-0.00045814854,-0.00015271618,-55.800003,-15.000001,3.9,9.863437512923984,0.0010357715442153902,0.14973414267069746,0.23415658555297694,9.86040885312546,,,,,,,,634080.0,,1,0,0,1,1
1789661772747.0,1.65,0.15014961,0.22941187,9.859626,-0.0009162971,-0.00045814854,-0.00015271618,-55.800003,-15.000001,3.9,9.863437512923984,0.0010357715442153902,0.1500392600683722,0.23072175626076433,9.859862871027417,,,,,,,,634080.0,,1,0,0,1,1
1789661772757.0,1.66,0.15014961,0.22941187,9.859626,-0.0009162971,-0.00045814854,-0.00015271618,-55.800003,-15.000001,3.9,9.863437512923984,0.0010357715442153902,0.15020814392561746,0.22889951352553628,9.85961942620094,,,,,,,,634080.0,,1,0,0,1,1
1789661772767.0,1.67,0.15014961,0.22941187,9.859626,-0.0009162971,-0.00045814854,-0.00015271618,-55.800003,-15.000001,3.9,9.863437512923984,0.0010357715442153902,0.15024072234815858,0.2285805142232682,9.859594323100053,,,,,,,,634080.0,,1,0,0,1,1
1789661772777.0,1.68,0.15014961,0.22941187,9.859626,0.00015271618,0.0018325942,-0.0010690133,-55.800003,-15.000001,3.9,9.863437512923984,0.00212709030581316,0.15019592400427303,0.22894285054535046,9.859576054773369,,,,,,,,634080.0,,1,0,0,1,1
1789661772787.0,1.69,0.15014961,0.22941187,9.859626,0.00015271618,0.0018325942,-0.0010690133,-55.800003,-15.000001,3.9,9.863437512923984,0.00212709030581316,0.1501409826574573,0.22919522631094558,9.859428261720696,,,,,,,,634080.0,,1,0,0,1,1
1789661772797.0,1.7,0.15014961,0.22941187,9.859626,0.00015271618,0.0018325942,-0.0010690133,-55.800003,-15.000001,3.9,9.863437512923984,0.00212709030581316,0.1501140071392388,0.2291585212817764,9.859255977357117,,,,,,,,634080.0,,1,0,0,1,1
1789661772807.0,1.71,0.15014961,0.22941187,9.859626,0.00015271618,0.0018325942,-0.0010690133,-55.800003,-15.000001,3.9,9.863437512923984,0.00212709030581316,0.1501192809626513,0.22929192360291206,9.859389896432711,,,,,,,,634080.0,,1,0,0,1,1
1789661772817.0,1.72,0.15014961,0.22941187,9.859626,0.00015271618,0.0018325942,-0.0010690133,-55.500004,-14.625001,4.125,9.863437512923984,0.00212709030581316,0.1501431564565508,0.2302145186642029,9.860159045253335,,,,,,,,634080.0,,1,0,0,1,1
1789661772827.0,1.73,0.15014961,0.22941187,9.859626,0.00015271618,0.0018325942,-0.0010690133,-55.500004,-14.625001,4.125,9.863437512923984,0.00212709030581316,0.15016921477925937,0.2321180951867078,9.861596851161035,,,,,,,,634080.0,,1,0,0,1,1
1789661772837.0,1.74,0.15014961,0.23748764,9.865309,0.00015271618,0.0018325942,-0.0010690133,-55.500004,-14.625001,4.125,9.869309345137426,0.00212709030581316,0.15018308332475086,0.23453827278428827,9.863330736183798,,,,,,,,634080.0,,1,0,0,1,1
1789661772847.0,1.75,0.15014961,0.23748764,9.865309,0.00015271618,0.0018325942,-0.0010690133,-55.500004,-14.625001,4.125,9.869309345137426,0.00212709030581316,0.1501728303185627,0.23666453280114721,9.864789642511967,,,,,,,,634080.0,,1,0,0,1,1
1789661772857.0,1.76,0.15014961,0.23748764,9.865309,0.00015271618,0.0018325942,-0.0010690133,-55.500004,-14.625001,4.125,9.869309345137426,0.00212709030581316,0.15013523230265924,0.23790196626537147,9.865576844087709,,,,,,,,634080.0,,1,0,0,1,1
1789661772867.0,1.77,0.15014961,0.23748764,9.865309,0.00015271618,0.0018325942,-0.0010690133,-55.500004,-14.625001,4.125,9.869309345137426,0.00212709030581316,0.15008814120550437,0.23819497622460176,9.86569528384812,,,,,,,,634080.0,,1,0,0,1,1
1789661772877.0,1.78,0.15014961,0.23748764,9.865309,-0.0,-0.0006108647,-0.0009162971,-55.500004,-14.625001,4.125,9.869309345137426,0.0011012520407129786,0.15007412910884727,0.23790511174508439,9.865466139340889,,,,,,,,634080.0,,1,0,0,1,1
1789661772887.0,1.79,0.15014961,0.23748764,9.865309,-0.0,-0.0006108647,-0.0009162971,-55.500004,-14.625001,4.125,9.869309345137426,0.0011012520407129786,0.15013684545352246,0.23746397608244302,9.865257998022077,,,,,,,,634080.0,,1,0,0,1,1
1789661772897.0,1.8,0.15014961,0.23748764,9.865309,-0.0,-0.0006108647,-0.0009162971,-55.500004,-14.625001,4.125,9.869309345137426,0.0011012520407129786,0.15027039921641278,0.23714233486972022,9.86525241230223,,,,,,,,634080.0,,1,0,0,1,1
1789661772907.0,1.81,0.15014961,0.23748764,9.865309,-0.0,-0.0006108647,-0.0009162971,-55.500004,-14.625001,4.125,9.869309345137426,0.0011012520407129786,0.1503764297443145,0.23705711776152516,9.865377886602571,,,,,,,,634080.0,,1,0,0,1,1
1789661772917.0,1.82,0.15014961,0.23748764,9.865309,-0.0,-0.0006108647,-0.0009162971,-56.100002,-14.700001,5.175,9.869309345137426,0.0011012520407129786,0.15028303680546792,0.23728243766602708,9.865407124099919,,,,,,,,634080.0,,1,0,0,1,1
1789661772927.0,1.83,0.15014961,0.23748764,9.865309,-0.0,-0.0006108647,-0.0009162971,-56.100002,-14.700001,5.175,9.869309345137426,0.0011012520407129786,0.1498481779059554,0.23787906803411105,9.865134951525645,,,,,,,,634080.0,,1,0,0,1,1
1789661772937.0,1.84,0.15014961,0.23748764,9.865309,-0.0,-0.0006108647,-0.0009162971,-56.100002,-14.700001,5.175,9.869309345137426,0.0011012520407129786,0.14908798096945494,0.23880735953565232,9.864529925236155,,,,,,,,634080.0,,1,0,0,1,1
1789661772947.0,1.85,0.1471586,0.24107689,9.862916,-0.0,-0.0006108647,-0.0009162971,-56.100002,-14.700001,5.175,9.866959295725408,0.0011012520407129786,0.14821041217280803,0.23985794191991214,9.863765763053784,,,,,,,,634080.0,,1,0,0,1,1
1789661772957.0,1.86,0.1471586,0.24107689,9.862916,-0.0,-0.0006108647,-0.0009162971,-56.100002,-14.700001,5.175,9.866959295725408,0.0011012520407129786,0.1474920311529253,0.24073064775566136,9.86310996773598,,,,,,,,634080.0,,1,0,0,1,1
1789661772967.0,1.87,0.1471586,0.24107689,9.862916,-0.0,-0.0006108647,-0.0009162971,-56.100002,-14.700001,5.175,9.866959295725408,0.0011012520407129786,0.14708878065601452,0.24121849789790897,9.86275470809151,,,,,,,,634080.0,,1,0,0,1,1
1789661772977.0,1.88,0.1471586,0.24107689,9.862916,-0.0,-0.0006108647,-0.0009162971,-56.100002,-14.700001,5.175,9.866959295725408,0.0011012520407129786,0.1469537503549273,0.2413255223089605,9.86271822726048,,,,,,,,634080.0,,1,0,0,1,1
1789661772987.0,1.89,0.1471586,0.24107689,9.862916,-0.0010690133,-0.0006108647,0.00015271618,-56.100002,-14.700001,5.175,9.866959295725408,0.0012406721359475969,0.14693543458696637,0.24121909165070185,9.862869848136123,,,,,,,,634080.0,,1,0,0,1,1
1789661772997.0,1.9,0.1471586,0.24107689,9.862916,-0.0010690133,-0.0006108647,0.00015271618,-56.100002,-14.700001,5.175,9.866959295725408,0.0012406721359475969,0.1469546364017857,0.24108362827463625,9.863026129247745,,,,,,,,634080.0,,1,0,0,1,1
1789661773007.0,1.91,0.1471586,0.24107689,9.862916,-0.0010690133,-0.0006108647,0.00015271618,-56.100002,-14.700001,5.175,9.866959295725408,0.0012406721359475969,0.14708993472806517,0.24100964772760508,9.863040301404803,,,,,,,,634080.0,,1,0,0,1,1
1789661773017.0,1.92,0.1471586,0.24107689,9.862916,-0.0010690133,-0.0006108647,0.00015271618,-55.425003,-14.775001,4.65,9.866959295725408,0.0012406721359475969,0.1474924162609467,0.2409851661094556,9.86285252676975,,,,,,,,634080.0,,1,0,0,1,1
1789661773027.0,1.93,0.1471586,0.24107689,9.862916,-0.0010690133,-0.0006108647,0.00015271618,-55.425003,-14.775001,4.65,9.866959295725408,0.0012406721359475969,0.14820915642461496,0.24095885403544756,9.862503471017513,,,,,,,,634080.0,,1,0,0,1,1
1789661773037.0,1.94,0.15014961,0.24077778,9.861719,-0.0010690133,-0.0006108647,0.00015271618,-55.425003,-14.775001,4.65,9.865800549356646,0.0012406721359475969,0.14908530839060974,0.24090329303018396,9.862110203341288,,,,,,,,634080.0,,1,0,0,1,1
1789661773047.0,1.95,0.15014961,0.24077778,9.861719,-0.0010690133,-0.0006108647,0.00015271618,-55.425003,-14.775001,4.65,9.865800549356646,0.0012406721359475969,0.14984603720607367,0.24083213184103344,9.861803704235193,,,,,,,,634080.0,,1,0,0,1,1
1789661773057.0,1.96,0.15014961,0.24077778,9.861719,-0.0010690133,-0.0006108647,0.00015271618,-55.425003,-14.775001,4.65,9.865800549356646,0.0012406721359475969,0.15028437511597575,0.24077615509904393,9.861656780926143,,,,,,,,634080.0,,1,0,0,1,1
1789661773067.0,1.97,0.15014961,0.24077778,9.861719,-0.0010690133,-0.0006108647,0.00015271618,-55.425003,-14.775001,4.65,9.865800549356646,0.0012406721359475969,0.1503826518391945,0.24075313587633534,9.86165119090816,,,,,,,,634080.0,,1,0,0,1,1
1789661773077.0,1.98,0.15014961,0.24077778,9.861719,-0.0010690133,-0.0006108647,0.00015271618,-55.425003,-14.775001,4.65,9.865800549356646,0.0012406721359475969,0.15027833278798083,0.24075790488513457,9.861705267168164,,,,,,,,634080.0,,1,0,0,1,1
1789661773087.0,1.99,0.15014961,0.24077778,9.861719,0.00015271618,0.0006108647,0.00015271618,-55.425003,-14.775001,4.65,9.865800549356646,0.0006479198599932517,0.15013838696632228,0.24077280098601667,9.861735972474605,,,,,,,,634080.0,,1,0,0,1,1
1789661773097.0,2.0,0.15014961,0.24077778,9.861719,0.00015271618,0.0006108647,0.00015271618,-55.425003,-14.775001,4.65,9.865800549356646,0.0006479198599932517,0.1500615108157789,0.24078305312767087,9.861711481634332,,,,,,,,634080.0,,1,0,0,1,1
1789661773107.0,2.01,0.15014961,0.24077778,9.861719,0.00015271618,0.0006108647,0.00015271618,-55.425003,-14.775001,4.65,9.865800549356646,0.0006479198599932517,0.15006393619035174,0.2407844229391952,9.86166651102796,,,,,,,,634080.0,,1,0,0,1,1
1789661773117.0,2.02,0.15014961,0.24077778,9.861719,0.00015271618,0.0006108647,0.00015271618,-56.175003,-14.625001,5.175,9.865800549356646,0.0006479198599932517,0.15012036473986246,0.24078102783782246,9.861676032323128,,,,,,,,634080.0,,1,0,0,1,1
1789661773127.0,2.03,0.15014961,0.24077778,9.861719,0.00015271618,0.0006108647,0.00015271618,-56.175003,-14.625001,5.175,9.865800549356646,0.0006479198599932517,0.1502033601953114,0.24077854294280002,9.861801381889011,,,,,,,,634080.0,,1,0,0,1,1
1789661773137.0,2.04,0.15014961,0.24077778,9.861719,0.00015271618,0.0006108647,0.00015271618,-56.175003,-14.625001,5.175,9.865800549356646,0.0006479198599932517,0.15029285666328163,0.2407788652762484,9.862039711984693,,,,,,,,634080.0,,1,0,0,1,1
1789661773147.0,2.05,0.15044872,0.24077778,9.862617,0.00015271618,0.0006108647,0.00015271618,-56.175003,-14.625001,5.175,9.86670273421574,0.0006479198599932517,0.1503685494676839,0.24077936746118217,9.862315149836224,,,,,,,,634080.0,,1,0,0,1,1
1789661773157.0,2.06,0.15044872,0.24077778,9.862617,0.00015271618,0.0006108647,0.00015271618,-56.175003,-14.625001,5.175,9.86670273421574,0.0006479198599932517,0.15041124857706556,0.2407763624736522,9.862527075728066,,,,,,,,634080.0,,1,0,0,1,1
1789661773167.0,2.07,0.15044872,0.24077778,9.862617,0.00015271618,0.0006108647,0.00015271618,-56.175003,-14.625001,5.175,9.86670273421574,0.0006479198599932517,0.15041902511067612,0.24076992731958127,9.862622586667408,,,,,,,,634080.0,,1,0,0,1,1
1789661773177.0,2.08,0.15044872,0.24077778,9.862617,0.00015271618,0.0006108647,0.00015271618,-56.175003,-14.625001,5.175,9.86670273421574,0.0006479198599932517,0.15041836772950468,0.24076613056788232,9.862632630195698,,,,,,,,634080.0,,1,0,0,1,1
1789661773187.0,2.09,0.15044872,0.24077778,9.862617,0.00015271618,0.0006108647,-0.0010690133,-56.175003,-14.625001,5.175,9.86670273421574,0.001240672135947597,0.15044864638355168,0.24077348486640504,9.862638513391639,,,,,,,,634080.0,,1,0,0,1,1
1789661773197.0,2.1,0.15044872,0.24077778,9.862617,0.00015271618,0.0006108647,-0.0010690133,-56.175003,-14.625001,5.175,9.86670273421574,0.001240672135947597,0.15052153758314357,0.24079387445759876,9.862692749693089,,,,,,,,634080.0,,1,0,0,1,1
1789661773207.0,2.11,0.15044872,0.24077778,9.862617,0.00015271618,0.0006108647,-0.0010690133,-56.175003,-14.625001,5.175,9.86670273421574,0.001240672135947597,0.15058525278778886,0.2408135830136168,9.862755576348587,,,,,,,,634080.0,,1,0,0,1,1
1789661773217.0,2.12,0.15044872,0.24077778,9.862617,0.00015271618,0.0006108647,-0.0010690133,-56.100002,-15.000001,4.125,9.86670273421574,0.001240672135947597,0.15053305830779778,0.24080349448790417,9.862702502150572,,,,,,,,634080.0,,1,0,0,1,1
1789661773227.0,2.13,0.15044872,0.24077778,9.862617,0.00015271618,0.0006108647,-0.0010690133,-56.100002,-15.000001,4.125,9.86670273421574,0.001240672135947597,0.15027067544206096,0.24073353024241767,9.862412281461467,,,,,,,,634080.0,,1,0,0,1,1
1789661773237.0,2.14,0.15044872,0.24077778,9.862617,0.00015271618,0.0006108647,-0.0010690133,-56.100002,-15.000001,4.125,9.86670273421574,0.001240672135947597,0.14980306479182637,0.24059419703169493,9.861878034139862,,,,,,,,634080.0,,1,0,0,1,1
1789661773247.0,2.15,0.1486541,0.24017957,9.860523,0.00015271618,0.0006108647,-0.0010690133,-56.100002,-15.000001,4.125,9.864567811152256,0.001240672135947597,0.14926229760664317,0.2404083654187015,9.8612454259301,,,,,,,,634080.0,,1,0,0,1,1
1789661773257.0,2.16,0.1486541,0.24017957,9.860523,0.00015271618,0.0006108647,-0.0010690133,-56.100002,-15.000001,4.125,9.864567811152256,0.001240672135947597,0.14883205133379354,0.2402233693137055,9.860727783460735,,,,,,,,634080.0,,1,0,0,1,1
1789661773267.0,2.17,0.1486541,0.24017957,9.860523,0.00015271618,0.0006108647,-0.0010690133,-56.100002,-15.000001,4.125,9.864567811152256,0.001240672135947597,0.14861999518577018,0.24009233259154372,9.86045983349468,,,,,,,,634080.0,,1,0,0,1,1
1789661773277.0,2.18,0.1486541,0.24017957,9.860523,0.00015271618,0.0006108647,-0.0010690133,-56.100002,-15.000001,4.125,9.864567811152256,0.001240672135947597,0.14858810193802574,0.24005856340541773,9.860415521359565,,,,,,,,634080.0,,1,0,0,1,1
1789661773287.0,2.19,0.1486541,0.24017957,9.860523,-0.0010690133,0.0006108647,0.00015271618,-56.100002,-15.000001,4.125,9.864567811152256,0.0012406721359475969,0.14860243275418838,0.24013986698558673,9.860456076478474,,,,,,,,634080.0,,1,0,0,1,1
1789661773297.0,2.2,0.1486541,0.24017957,9.860523,-0.0010690133,0.0006108647,0.00015271618,-56.100002,-15.000001,4.125,9.864567811152256,0.0012406721359475969,0.1485602186231431,0.2403008144754535,9.860459098583469,,,,,,,,634080.0,,1,0,0,1,1
1789661773307.0,2.21,0.1486541,0.24017957,9.860523,-0.0010690133,0.0006108647,0.00015271618,-56.100002,-15.000001,4.125,9.864567811152256,0.0012406721359475969,0.14849205786775235,0.24042568423375454,9.860421958673621,,,,,,,,634080.0,,1,0,0,1,1
1789661773317.0,2.22,0.1486541,0.24017957,9.860523,-0.0010690133,0.0006108647,0.00015271618,-56.025,-14.400001,4.875,9.864567811152256,0.0012406721359475969,0.1485563259203623,0.24033742933454477,9.860463207305505,,,,,,,,634080.0,,1,0,0,1,1
1789661773327.0,2.23,0.1486541,0.24017957,9.860523,-0.0010690133,0.0006108647,0.00015271618,-56.025,-14.400001,4.875,9.864567811152256,0.0012406721359475969,0.14891807060710785,0.23989331316264303,9.860721995186088,,,,,,,,634080.0,,1,0,0,1,1
1789661773337.0,2.24,0.1486541,0.24017957,9.860523,-0.0010690133,0.0006108647,0.00015271618,-56.025,-14.400001,4.875,9.864567811152256,0.0012406721359475969,0.14959627695161562,0.23911033320331673,9.861230756565822,,,,,,,,634080.0,,1,0,0,1,1
1789661773347.0,2.25,0.15134603,0.23718855,9.862617,-0.0010690133,0.0006108647,0.00015271618,-56.025,-14.400001,4.875,9.866629521662242,0.0012406721359475969,0.1504092346690734,0.23820478375242038,9.861865092154812,,,,,,,,634080.0,,1,0,0,1,1
1789661773357.0,2.26,0.15134603,0.23718855,9.862617,-0.0010690133,0.0006108647,0.00015271618,-56.025,-14.400001,4.875,9.866629521662242,0.0012406721359475969,0.151082421095307,0.23747466571446732,9.862418135136261,,,,,,,,634080.0,,1,0,0,1,1
1789661773367.0,2.27,0.15134603,0.23718855,9.862617,-0.0010690133,0.0006108647,0.00015271618,-56.025,-14.400001,4.875,9.866629521662242,0.0012406721359475969,0.15143713939978617,0.23710173452173067,9.862736368452184,,,,,,,,634080.0,,1,0,0,1,1
1789661773377.0,2.28,0.15134603,0.23718855,9.862617,-0.0010690133,0.0006108647,0.00015271618,-56.025,-14.400001,4.875,9.866629521662242,0.0012406721359475969,0.15149798862312963,0.2370421392785619,9.862801145107143,,,,,,,,634080.0,,1,0,0,1,1
1789661773387.0,2.29,0.15134603,0.23718855,9.862617,-0.0010690133,0.0006108647,0.00015271618,-56.025,-14.400001,4.875,9.866629521662242,0.0012406721359475969,0.1514357082570842,0.2370970067976644,9.862704852317634,,,,,,,,634080.0,,1,0,0,1,1
1789661773397.0,2.3,0.15134603,0.23718855,9.862617,-0.00045814854,-0.0012217294,0.00015271618,-56.025,-14.400001,4.875,9.866629521662242,0.0013137142167009856,0.15140904079805248,0.23709496484392406,9.862571420849738,,,,,,,,634080.0,,1,0,0,1,1
1789661773407.0,2.31,0.15134603,0.23718855,9.862617,-0.00045814854,-0.0012217294,0.00015271618,-56.025,-14.400001,4.875,9.866629521662242,0.0013137142167009856,0.15143829001664075,0.2370372928516759,9.86249671119703,,,,,,,,634080.0,,1,0,0,1,1
1789661773417.0,2.32,0.15134603,0.23718855,9.862617,-0.00045814854,-0.0012217294,0.00015271618,-55.95,-14.775001,5.175,9.866629521662242,0.0013137142167009856,0.15140061840610014,0.23709766590107081,9.86253299118298,,,,,,,,634080.0,,1,0,0,1,1
1789661773427.0,2.33,0.15134603,0.23718855,9.862617,-0.00045814854,-0.0012217294,0.00015271618,-55.95,-14.775001,5.175,9.866629521662242,0.0013137142167009856,0.1511433700002169,0.23747588854637447,9.862692004171516,,,,,,,,634080.0,,1,0,0,1,1
1789661773437.0,2.34,0.15134603,0.23718855,9.862617,-0.00045814854,-0.0012217294,0.00015271618,-55.95,-14.775001,5.175,9.866629521662242,0.0013137142167009856,0.15062762504838023,0.23821348348067084,9.862943491886087,,,,,,,,634080.0,,1,0,0,1,1
1789661773447.0,2.35,0.14925231,0.24017957,9.863514,-0.00045814854,-0.0012217294,0.00015271618,-55.95,-14.775001,5.175,9.867566615234058,0.0013137142167009856,0.14998614718524034,0.23912239237224067,9.863218780217208,,,,,,,,634080.0,,1,0,0,1,1
1789661773457.0,2.36,0.14925231,0.24017957,9.863514,-0.00045814854,-0.0012217294,0.00015271618,-55.95,-14.775001,5.175,9.867566615234058,0.0013137142167009856,0.14944249301343765,0.23989755518673994,9.86343858186287,,,,,,,,634080.0,,1,0,0,1,1
1789661773467.0,2.37,0.14925231,0.24017957,9.863514,-0.00045814854,-0.0012217294,0.00015271618,-55.95,-14.775001,5.175,9.867566615234058,0.0013137142167009856,0.14915711796714104,0.240322270127757,9.863555294147435,,,,,,,,634080.0,,1,0,0,1,1
1789661773477.0,2.38,0.14925231,0.24017957,9.863514,-0.00045814854,-0.0012217294,0.00015271618,-55.95,-14.775001,5.175,9.867566615234058,0.0013137142167009856,0.14912887944140218,0.24039235714249257,9.863575347279808,,,,,,,,634080.0,,1,0,0,1,1
1789661773487.0,2.39,0.14925231,0.24017957,9.863514,-0.00045814854,-0.0012217294,0.00015271618,-55.95,-14.775001,5.175,9.867566615234058,0.0013137142167009856,0.14922146757191293,0.24027346088488877,9.863543607355542,,,,,,,,634080.0,,1,0,0,1,1
1789661773497.0,2.4,0.14925231,0.24017957,9.863514,0.00015271618,0.0006108647,0.00015271618,-55.95,-14.775001,5.175,9.867566615234058,0.0006479198599932517,0.14927655452476846,0.2401573727877223,9.863507695147353,,,,,,,,634080.0,,1,0,0,1,1
1789661773507.0,2.41,0.14925231,0.24017957,9.863514,0.00015271618,0.0006108647,0.00015271618,-55.95,-14.775001,5.175,9.867566615234058,0.0006479198599932517,0.14922559150511866,0.24014044468167517,9.86349243637417,,,,,,,,634080.0,,1,0,0,1,1
1789661773517.0,2.42,0.14925231,0.24017957,9.863514,0.00015271618,0.0006108647,0.00015271618,-56.625004,-14.775001,5.3250003,9.867566615234058,0.0006479198599932517,0.1491343223899291,0.2401931324000685,9.863497612659195,,,,,,,,634080.0,,1,0,0,1,1
1789661773527.0,2.43,0.14925231,0.24017957,9.863514,0.00015271618,0.0006108647,0.00015271618,-56.625004,-14.775001,5.3250003,9.867566615234058,0.0006479198599932517,0.14915909646857953,0.24021259896241168,9.863510946319135,,,,,,,,634080.0,,1,0,0,1,1
1789661773537.0,2.44,0.14925231,0.24017957,9.863514,0.00015271618,0.0006108647,0.00015271618,-56.625004,-14.775001,5.3250003,9.867566615234058,0.0006479198599932517,0.14943684959089545,0.24010985318024983,9.863521411051499,,,,,,,,634080.0,,1,0,0,1,1
1789661773547.0,2.45,0.14925231,0.24017957,9.863514,0.00015271618,0.0006108647,0.00015271618,-56.625004,-14.775001,5.3250003,9.867566615234058,0.0006479198599932517,0.1499736819382098,0.23987692094051496,9.86352447898382,,,,,,,,634080.0,,1,0,0,1,1
1789661773557.0,2.46,0.15134603,0.23928227,9.863514,0.00015271618,0.0006108647,0.00015271618,-56.625004,-14.775001,5.3250003,9.867576706250077,0.0006479198599932517,0.15061720980429683,0.23959368139941611,9.863520482618902,,,,,,,,634080.0,,1,0,0,1,1
1789661773567.0,2.47,0.15134603,0.23928227,9.863514,0.00015271618,0.0006108647,0.00015271618,-56.625004,-14.775001,5.3250003,9.867576706250077,0.0006479198599932517,0.1511488622740979,0.23936992073932414,9.863511803808443,,,,,,,,634080.0,,1,0,0,1,1
1789661773577.0,2.48,0.15134603,0.23928227,9.863514,0.00015271618,0.0006108647,0.00015271618,-56.625004,-14.775001,5.3250003,9.867576706250077,0.0006479198599932517,0.15142916986834784,0.23926599178710056,9.863502560177265,,,,,,,,634080.0,,1,0,0,1,1
1789661773587.0,2.49,0.15134603,0.23928227,9.863514,0.00015271618,0.0006108647,0.00015271618,-56.625004,-14.775001,5.3250003,9.867576706250077,0.0006479198599932517,0.1514758955608749,0.23925527163222987,9.863499435803293,,,,,,,,634080.0,,1,0,0,1,1
1789661773597.0,2.5,0.15134603,0.23928227,9.863514,0.00015271618,-0.0,0.00015271618,-56.625004,-14.775001,5.3250003,9.867576706250077,0.0002159732929498108,0.15141809331070244,0.23925804412966223,9.863509382522475,,,,,,,,634080.0,,1,0,0,1,1
1789661773607.0,2.51,0.15134603,0.23928227,9.863514,0.00015271618,-0.0,0.00015271618,-56.625004,-14.775001,5.3250003,9.867576706250077,0.0002159732929498108,0.15137881059553193,0.23921896247335075,9.863532226901523,,,,,,,,634080.0,,1,0,0,1,1
1789661773617.0,2.52,0.15134603,0.23928227,9.863514,0.00015271618,-0.0,0.00015271618,-55.95,-14.925,4.7250004,9.867576706250077,0.0002159732929498108,0.15138495068125002,0.23916760123372685,9.863552629940141,,,,,,,,634080.0,,1,0,0,1,1
1789661773627.0,2.53,0.15134603,0.23928227,9.863514,0.00015271618,-0.0,0.00015271618,-55.95,-14.925,4.7250004,9.867576706250077,0.0002159732929498108,0.15136465088448414,0.23921194464708628,9.863540715339283,,,,,,,,634080.0,,1,0,0,1,1
1789661773637.0,2.54,0.15134603,0.23928227,9.863514,0.00015271618,-0.0,0.00015271618,-55.95,-14.925,4.7250004,9.867576706250077,0.0002159732929498108,0.1512230724007901,0.23945914397386098,9.86346705290028,,,,,,,,634080.0,,1,0,0,1,1
1789661773647.0,2.55,0.15134603,0.23928227,9.863514,0.00015271618,-0.0,0.00015271618,-55.95,-14.925,4.7250004,9.867576706250077,0.0002159732929498108,0.1509341653253095,0.2399166062415216,9.863324681103313,,,,,,,,634080.0,,1,0,0,1,1
1789661773657.0,2.56,0.15014961,0.24107689,9.862916,0.00015271618,-0.0,0.00015271618,-55.95,-14.925,4.7250004,9.867004357723332,0.0002159732929498108,0.15057493176970435,0.24045833214812062,9.863140137788704,,,,,,,,634080.0,,1,0,0,1,1
1789661773667.0,2.57,0.15014961,0.24107689,9.862916,0.00015271618,-0.0,0.00015271618,-55.95,-14.925,4.7250004,9.867004357723332,0.0002159732929498108,0.15027315919460882,0.2408996132926192,9.862962727033377,,,,,,,,634080.0,,1,0,0,1,1
1789661773677.0,2.58,0.15014961,0.24107689,9.862916,0.00015271618,-0.0,0.00015271618,-55.95,-14.925,4.7250004,9.867004357723332,0.0002159732929498108,0.15011383948198545,0.24112536882905894,9.86284211768645,,,,,,,,634080.0,,1,0,0,1,1
1789661773687.0,2.59,0.15014961,0.24107689,9.862916,0.00015271618,-0.0,0.00015271618,-55.95,-14.925,4.7250004,9.867004357723332,0.0002159732929498108,0.15008548450022316,0.24116184950718916,9.862811824843677,,,,,,,,634080.0,,1,0,0,1,1
1789661773697.0,2.6,0.15014961,0.24107689,9.862916,0.00015271618,-0.0,0.00015271618,-55.95,-14.925,4.7250004,9.867004357723332,0.0002159732929498108,0.15010750269831336,0.24113293188248122,9.86287930101288,,,,,,,,634080.0,,1,0,0,1,1
1789661773707.0,2.61,0.15014961,0.24107689,9.862916,0.00015271618,-0.0006108647,0.00015271618,-55.95,-14.925,4.7250004,9.867004357723332,0.0006479198599932517,0.15010806016233602,0.24114368389568502,9.863010103115462,,,,,,,,634080.0,,1,0,0,1,1
1789661773717.0,2.62,0.15014961,0.24107689,9.862916,0.00015271618,-0.0006108647,0.00015271618,-56.325,-14.625001,5.3250003,9.867004357723332,0.0006479198599932517,0.15008668530414637,0.24118672050415005,9.863110657936119,,,,,,,,634080.0,,1,0,0,1,1
1789661773727.0,2.63,0.15014961,0.24107689,9.862916,0.00015271618,-0.0006108647,0.00015271618,-56.325,-14.625001,5.3250003,9.867004357723332,0.0006479198599932517,0.15011450992487607,0.24114262267426437,9.863042559361968,,,,,,,,634080.0,,1,0,0,1,1
1789661773737.0,2.64,0.15014961,0.24107689,9.862916,0.00015271618,-0.0006108647,0.00015271618,-56.325,-14.625001,5.3250003,9.867004357723332,0.0006479198599932517,0.15027216372037785,0.24087690140343648,9.86269389378117,,,,,,,,634080.0,,1,0,0,1,1
1789661773747.0,2.65,0.15014961,0.24107689,9.862916,0.00015271618,-0.0006108647,0.00015271618,-56.325,-14.625001,5.3250003,9.867004357723332,0.0006479198599932517,0.15057225831094562,0.24036293736806585,9.862074501071271,,,,,,,,634080.0,,1,0,0,1,1
1789661773757.0,2.66,0.15134603,0.23898315,9.860523,0.00015271618,-0.0006108647,0.00015271618,-56.325,-14.625001,5.3250003,9.86457968695624,0.0006479198599932517,0.150931688848326,0.239729245869739,9.861347917776811,,,,,,,,634080.0,,1,0,0,1,1
1789661773767.0,2.67,0.15134603,0.23898315,9.860523,0.00015271618,-0.0006108647,0.00015271618,-56.325,-14.625001,5.3250003,9.86457968695624,0.0006479198599932517,0.15122393251675487,0.23918332103395898,9.8607453715641,,,,,,,,634080.0,,1,0,0,1,1
1789661773777.0,2.68,0.15134603,0.23898315,9.860523,0.00015271618,-0.0006108647,0.00015271618,-56.325,-14.625001,5.3250003,9.86457968695624,0.0006479198599932517,0.15137069409118004,0.23887447921330598,9.86041915277681,,,,,,,,634080.0,,1,0,0,1,1
1789661773787.0,2.69,0.15134603,0.23898315,9.860523,0.00015271618,-0.0006108647,0.00015271618,-56.325,-14.625001,5.3250003,9.86457968695624,0.0006479198599932517,0.15139343687863338,0.23881283372562784,9.860359560651917,,,,,,,,634080.0,,1,0,0,1,1
1789661773797.0,2.7,0.15134603,0.23898315,9.860523,-0.00045814854,0.0006108647,-0.0010690133,-56.325,-14.625001,5.3250003,9.86457968695624,0.0013137142771497583,0.15138158850528732,0.2388979314394828,9.860437111673852,,,,,,,,634080.0,,1,0,0,1,1
1789661773807.0,2.71,0.15134603,0.23898315,9.860523,-0.00045814854,0.0006108647,-0.0010690133,-56.325,-14.625001,5.3250003,9.86457968695624,0.0013137142771497583,0.15140651890900098,0.23900720323651195,9.86051602189021,,,,,,,,634080.0,,1,0,0,1,1
1789661773817.0,2.72,0.15134603,0.23898315,9.860523,-0.00045814854,0.0006108647,-0.0010690133,-56.4,-14.925,5.025,9.86457968695624,0.0013137142771497583,0.15145113416358477,0.23906289834290467,9.860540766102218,,,,,,,,634080.0,,1,0,0,1,1
1789661773827.0,2.73,0.15134603,0.23898315,9.860523,-0.00045814854,0.0006108647,-0.0010690133,-56.4,-14.925,5.025,9.86457968695624,0.0013137142771497583,0.1514113920135969,0.23904409000056515,9.860543465315667,,,,,,,,634080.0,,1,0,0,1,1
1789661773837.0,2.74,0.15134603,0.23898315,9.860523,-0.00045814854,0.0006108647,-0.0010690133,-56.4,-14.925,5.025,9.86457968695624,0.0013137142771497583,0.15117550132922608,0.2389655285677509,9.860588598847803,,,,,,,,634080.0,,1,0,0,1,1
1789661773847.0,2.75,0.15134603,0.23898315,9.860523,-0.00045814854,0.0006108647,-0.0010690133,-56.4,-14.925,5.025,9.86457968695624,0.0013137142771497583,0.15072587679034288,0.23885702687038607,9.860708808691436,,,,,,,,634080.0,,1,0,0,1,1
1789661773857.0,2.76,0.14955142,0.23868406,9.861121,-0.00045814854,0.0006108647,-0.0010690133,-56.4,-14.925,5.025,9.865142831422316,0.0013137142771497583,0.15017850330035262,0.23875411062802954,9.860879818271725,,,,,,,,634080.0,,1,0,0,1,1
1789661773867.0,2.77,0.14955142,0.23868406,9.861121,-0.00045814854,0.0006108647,-0.0010690133,-56.4,-14.925,5.025,9.865142831422316,0.0013137142771497583,0.14971636562358853,0.23868976521105617,9.861044999046413,,,,,,,,634080.0,,1,0,0,1,1
1789661773877.0,2.78,0.14955142,0.23868406,9.861121,-0.00045814854,0.0006108647,-0.0010690133,-56.4,-14.925,5.025,9.865142831422316,0.0013137142771497583,0.14946785619696645,0.23867956778471164,9.861158436328804,,,,,,,,634080.0,,1,0,0,1,1
1789661773887.0,2.79,0.14955142,0.23868406,9.861121,-0.00045814854,0.0006108647,-0.0010690133,-56.4,-14.925,5.025,9.865142831422316,0.0013137142771497583,0.14943232332654427,0.23870783342836122,9.861205632027612,,,,,,,,634080.0,,1,0,0,1,1
1789661773897.0,2.8,0.14955142,0.23868406,9.861121,-0.00045814854,0.0006108647,-0.0010690133,-56.4,-14.925,5.025,9.865142831422316,0.0013137142771497583,0.14950531991890575,0.2387299254840491,9.861192411817,,,,,,,,634080.0,,1,0,0,1,1
1789661773907.0,2.81,0.14955142,0.23868406,9.861121,0.00015271618,-0.0006108647,0.0,-56.4,-14.925,5.025,9.865142831422316,0.0006296649214779893,0.1495669273614016,0.23869903564176123,9.861129096043413,,,,,,,,634080.0,,1,0,0,1,1
1789661773917.0,2.82,0.14955142,0.23868406,9.861121,0.00015271618,-0.0006108647,0.0,-54.45,-14.85,2.325,9.865142831422316,0.0006296649214779893,0.14956024673263396,0.23860938269178192,9.861037522078329,,,,,,,,634080.0,,1,0,0,1,1
1789661773927.0,2.83,0.14955142,0.23868406,9.861121,0.00015271618,-0.0006108647,0.0,-54.45,-14.85,2.325,9.865142831422316,0.0006296649214779893,0.14951492727029553,0.23852851079444928,9.86097416156128,,,,,,,,634080.0,,1,0,0,1,1
1789661773937.0,2.84,0.14955142,0.23868406,9.861121,0.00015271618,-0.0006108647,0.0,-54.45,-14.85,2.325,9.865142831422316,0.0006296649214779893,0.14951377524316323,0.23858258405438615,9.861031733433164,,,,,,,,634080.0,,1,0,0,1,1
1789661773947.0,2.85,0.14955142,0.23868406,9.861121,0.00015271618,-0.0006108647,0.0,-54.45,-14.85,2.325,9.865142831422316,0.0006296649214779893,0.14962813544922218,0.23888083478293598,9.86129157536521,,,,,,,,634080.0,,1,0,0,1,1
1789661773957.0,2.86,0.14955142,0.23868406,9.861121,0.00015271618,-0.0006108647,0.0,-54.45,-14.85,2.325,9.865142831422316,0.0006296649214779893,0.14986143314562955,0.2394205647427238,9.86175084279554,,,,,,,,634080.0,,1,0,0,1,1
1789661773967.0,2.87,0.15044872,0.24077778,9.862916,0.00015271618,-0.0006108647,0.0,-54.45,-14.85,2.325,9.867001610405634,0.0006296649214779893,0.15013982243208226,0.24005617841656576,9.862293476361826,,,,,,,,634080.0,,1,0,0,1,1
1789661773977.0,2.88,0.15044872,0.24077778,9.862916,0.00015271618,-0.0006108647,0.0,-54.45,-14.85,2.325,9.867001610405634,0.0006296649214779893,0.15036133820592495,0.24057969693420345,9.862749491181361,,,,,,,,634080.0,,1,0,0,1,1
1789661773987.0,2.89,0.15044872,0.24077778,9.862916,0.00015271618,-0.0006108647,0.0,-54.45,-14.85,2.325,9.867001610405634,0.0006296649214779893,0.15046789400545746,0.24085713401154668,9.863001897360334,,,,,,,,634080.0,,1,0,0,1,1
1789661773997.0,2.9,0.15044872,0.24077778,9.862916,0.00015271618,-0.0006108647,0.0,-54.45,-14.85,2.325,9.867001610405634,0.0006296649214779893,0.1504812958204112,0.24090505707229692,9.863049767925137,,,,,,,,634080.0,,1,0,0,1,1
1789661774007.0,2.91,0.15044872,0.24077778,9.862916,-0.00045814854,0.0,0.00015271618,-54.45,-14.85,2.325,9.867001610405634,0.000482930964360253,0.1504740715145238,0.24084847549364796,9.86298218625958,,,,,,,,634080.0,,1,0,0,1,1
1789661774017.0,2.92,0.15044872,0.24077778,9.862916,-0.00045814854,0.0,0.00015271618,-55.425003,-15.150001,4.125,9.867001610405634,0.000482930964360253,0.15050005940202388,0.2408083042558849,9.862902005489657,,,,,,,,634080.0,,1,0,0,1,1
1789661774027.0,2.93,0.15044872,0.24077778,9.862916,-0.00045814854,0.0,0.00015271618,-55.425003,-15.150001,4.125,9.867001610405634,0.000482930964360253,0.1505397172643115,0.24081329350316247,9.862867197277788,,,,,,,,634080.0,,1,0,0,1,1
1789661774037.0,2.94,0.15044872,0.24077778,9.862916,-0.00045814854,0.0,0.00015271618,-55.425003,-15.150001,4.125,9.867001610405634,0.000482930964360253,0.15050426975257447,0.24079548958117286,9.862880995064653,,,,,,,,634080.0,,1,0,0,1,1
1789661774047.0,2.95,0.15044872,0.24077778,9.862916,-0.00045814854,0.0,0.00015271618,-55.425003,-15.150001,4.125,9.867001610405634,0.000482930964360253,0.15030261260050717,0.24066141849222977,9.862915952823068,,,,,,,,634080.0,,1,0,0,1,1
1789661774057.0,2.96,0.15044872,0.24077778,9.862916,-0.00045814854,0.0,0.00015271618,-55.425003,-15.150001,4.125,9.867001610405634,0.000482930964360253,0.1499251462780216,0.2403800659425485,9.862942023851044,,,,,,,,634080.0,,1,0,0,1,1
1789661774067.0,2.97,0.14895321,0.23958136,9.862916,-0.00045814854,0.0,0.00015271618,-55.425003,-15.150001,4.125,9.866949797677332,0.000482930964360253,0.14947333655444536,0.24001845523701,9.862942020187242,,,,,,,,634080.0,,1,0,0,1,1
1789661774077.0,2.98,0.14895321,0.23958136,9.862916,-0.00045814854,0.0,0.00015271618,-55.425003,-15.150001,4.125,9.866949797677332,0.000482930964360253,0.1490995854929075,0.23969770539988938,9.862915883792668,,,,,,,,634080.0,,1,0,0,1,1
1789661774087.0,2.99,0.14895321,0.23958136,9.862916,-0.00045814854,0.0,0.00015271618,-55.425003,-15.150001,4.125,9.866949797677332,0.000482930964360253,0.14890271720976614,0.23951067414036062,9.862880770536444,,,,,,,,634080.0,,1,0,0,1,1
1789661774097.0,3.0,0.14895321,0.23958136,9.862916,-0.00045814854,0.0,0.00015271618,-55.425003,-15.150001,4.125,9.866949797677332,0.000482930964360253,0.14886872214501673,0.23947175427930117,9.862866873068949,,,,,,,,634080.0,,1,0,0,1,1
1789661774107.0,3.01,0.14895321,0.23958136,9.862916,0.00015271618,-0.0006108647,0.0,-55.425003,-15.150001,4.125,9.866949797677332,0.0006296649214779893,0.1489028374639101,0.23952918423101718,9.862901874031547,,,,,,,,634080.0,,1,0,0,1,1
1789661774117.0,3.02,0.14895321,0.23958136,9.862916,0.00015271618,-0.0006108647,0.0,-54.675003,-14.475,2.8500001,9.866949797677332,0.0006296649214779893,0.14891741568457426,0.2396104645626111,9.86298261104166,,,,,,,,634080.0,,1,0,0,1,1
1789661774127.0,3.03,0.14895321,0.23958136,9.862916,0.00015271618,-0.0006108647,0.0,-54.675003,-14.475,2.8500001,9.866949797677332,0.0006296649214779893,0.14890181982240527,0.2396568564610861,9.863050773626048,,,,,,,,634080.0,,1,0,0,1,1
1789661774137.0,3.04,0.14895321,0.23958136,9.862916,0.00015271618,-0.0006108647,0.0,-54.675003,-14.475,2.8500001,9.866949797677332,0.0006296649214779893,0.14892451822511185,0.2396334880783732,9.863002816133106,,,,,,,,634080.0,,1,0,0,1,1
1789661774147.0,3.05,0.14895321,0.23958136,9.862916,0.00015271618,-0.0006108647,0.0,-54.675003,-14.475,2.8500001,9.866949797677332,0.0006296649214779893,0.14906995959112404,0.23953017811448798,9.862749141693055,,,,,,,,634080.0,,1,0,0,1,1
1789661774157.0,3.06,0.14895321,0.23958136,9.862916,0.00015271618,-0.0006108647,0.0,-54.675003,-14.475,2.8500001,9.866949797677332,0.0006296649214779893,0.1493595570198866,0.23936509208990944,9.862291127054151,,,,,,,,634080.0,,1,0,0,1,1
1789661774167.0,3.07,0.15014961,0.23898315,9.861121,0.00015271618,-0.0006108647,0.0,-54.675003,-14.475,2.8500001,9.865159158777322,0.0006296649214779893,0.14972089374635583,0.23918307654519222,9.861747498639904,,,,,,,,634080.0,,1,0,0,1,1
1789661774177.0,3.08,0.15014961,0.23898315,9.861121,0.00015271618,-0.0006108647,0.0,-54.675003,-14.475,2.8500001,9.865159158777322,0.0006296649214779893,0.15003295086515056,0.23903644736120966,9.861290334306846,,,,,,,,634080.0,,1,0,0,1,1
1789661774187.0,3.09,0.15014961,0.23898315,9.861121,0.00015271618,-0.0006108647,0.0,-54.675003,-14.475,2.8500001,9.865159158777322,0.0006296649214779893,0.15020852711274404,0.2389563714612476,9.861035949264517,,,,,,,,634080.0,,1,0,0,1,1
1789661774197.0,3.1,0.15014961,0.23898315,9.861121,0.00015271618,-0.0006108647,0.0,-54.675003,-14.475,2.8500001,9.865159158777322,0.0006296649214779893,0.15024311978434896,0.23893880221942415,9.86098363351595,,,,,,,,634080.0,,1,0,0,1,1
1789661774207.0,3.11,0.15014961,0.23898315,9.861121,0.00015271618,-0.00015271618,-0.0006108647,-54.675003,-14.475,2.8500001,9.865159158777322,0.0006479198599932517,0.15019748634160487,0.2389562251793543,9.861045481658163,,,,,,,,634080.0,,1,0,0,1,1
1789661774217.0,3.12,0.15014961,0.23898315,9.861121,0.00015271618,-0.00015271618,-0.0006108647,-56.4,-14.85,5.25,9.865159158777322,0.0006479198599932517,0.15014287665326032,0.23898123422086678,9.861124319670878,,,,,,,,634080.0,,1,0,0,1,1
1789661774227.0,3.13,0.15014961,0.23898315,9.861121,0.00015271618,-0.00015271618,-0.0006108647,-56.4,-14.85,5.25,9.865159158777322,0.0006479198599932517,0.15011860945560665,0.23900027546331468,9.86116869265326,,,,,,,,634080.0,,1,0,0,1,1
1789661774237.0,3.14,0.15014961,0.23898315,9.861121,0.00015271618,-0.00015271618,-0.0006108647,-56.4,-14.85,5.25,9.865159158777322,0.0006479198599932517,0.15012542919513114,0.23901009688735797,9.861174540451314,,,,,,,,634080.0,,1,0,0,1,1
1789661774247.0,3.15,0.15014961,0.23898315,9.861121,0.00015271618,-0.00015271618,-0.0006108647,-56.4,-14.85,5.25,9.865159158777322,0.0006479198599932517,0.15014431814673845,0.23900706779020928,9.861154955910079,,,,,,,,634080.0,,1,0,0,1,1
1789661774257.0,3.16,0.15014961,0.23898315,9.861121,0.00015271618,-0.00015271618,-0.0006108647,-56.4,-14.85,5.25,9.865159158777322,0.0006479198599932517,0.15015801102035298,0.2389847025255849,9.861117211155143,,,,,,,,634080.0,,1,0,0,1,1
1789661774267.0,3.17,0.15014961,0.23898315,9.861121,0.00015271618,0.00045814854,0.00015271618,-56.4,-14.85,5.25,9.865159158777322,0.0005065022684763775,0.15016074325764886,0.23894514132835573,9.86106765137408,,,,,,,,634080.0,,1,0,0,1,1
1789661774277.0,3.18,0.15014961,0.23898315,9.861121,0.00015271618,0.00045814854,0.00015271618,-56.4,-14.85,5.25,9.865159158777322,0.0005065022684763775,0.15015587646173106,0.23891425112323558,9.861033025226202,,,,,,,,634080.0,,1,0,0,1,1
1789661774287.0,3.19,0.15014961,0.23898315,9.861121,0.00015271618,0.00045814854,0.00015271618,-56.4,-14.85,5.25,9.865159158777322,0.0005065022684763775,0.15014907059339905,0.23894069827128034,9.861067747346546,,,,,,,,634080.0,,1,0,0,1,1
1789661774297.0,3.2,0.15014961,0.23898315,9.861121,0.00015271618,0.00045814854,0.00015271618,-56.4,-14.85,5.25,9.865159158777322,0.0005065022684763775,0.15014399604146947,0.23906831471693704,9.86122681305938,,,,,,,,634080.0,,1,0,0,1,1
1789661774307.0,3.21,0.15014961,0.23898315,9.861121,0.00015271618,0.00045814854,0.00015271618,-56.4,-14.85,5.25,9.865159158777322,0.0005065022684763775,0.15014230549341143,0.2392970776797828,9.861519033095995,,,,,,,,634080.0,,1,0,0,1,1
1789661774317.0,3.22,0.15014961,0.23988047,9.862318,0.00015271618,0.00045814854,0.00015271618,-55.875004,-14.55,4.5,9.866377444553526,0.0005065022684763775,0.15014513121274464,0.23956838853115991,9.86188340520387,,,,,,,,634080.0,,1,0,0,1,1
1789661774327.0,3.23,0.15014961,0.23988047,9.862318,0.00015271618,0.00045814854,0.00015271618,-55.875004,-14.55,4.5,9.866377444553526,0.0005065022684763775,0.1501527590392189,0.2397961611414693,9.862216232198664,,,,,,,,634080.0,,1,0,0,1,1
1789661774337.0,3.24,0.15014961,0.23988047,9.862318,0.00015271618,0.00045814854,0.00015271618,-55.875004,-14.55,4.5,9.866377444553526,0.0005065022684763775,0.15016206992439632,0.23992179560460905,9.862426866416932,,,,,,,,634080.0,,1,0,0,1,1
1789661774347.0,3.25,0.15014961,0.23988047,9.862318,0.00015271618,0.00045814854,0.00015271618,-55.875004,-14.55,4.5,9.866377444553526,0.0005065022684763775,0.15016509677862092,0.23994601293705065,9.862475514321222,,,,,,,,634080.0,,1,0,0,1,1
1789661774357.0,3.26,0.15014961,0.23988047,9.862318,0.00015271618,0.00045814854,0.00015271618,-55.875004,-14.55,4.5,9.866377444553526,0.0005065022684763775,0.15015306759375616,0.23991458237607774,9.862378395008855,,,,,,,,634080.0,,1,0,0,1,1
1789661774367.0,3.27,0.15014961,0.23988047,9.862318,0.00015271618,-0.0006108647,-0.00030543236,-55.875004,-14.55,4.5,9.866377444553526,0.0006998334372370701,0.15012641941393098,0.23987826255530276,9.862204823608092,,,,,,,,634080.0,,1,0,0,1,1
1789661774377.0,3.28,0.15014961,0.23988047,9.862318,0.00015271618,-0.0006108647,-0.00030543236,-55.875004,-14.55,4.5,9.866377444553526,0.0006998334372370701,0.15010403526989474,0.23986263327500618,9.862079836118744,,,,,,,,634080.0,,1,0,0,1,1
1789661774387.0,3.29,0.15014961,0.23988047,9.862318,0.00015271618,-0.0006108647,-0.00030543236,-55.875004,-14.55,4.5,9.866377444553526,0.0006998334372370701,0.15012051572819662,0.23986509933640024,9.86216350729693,,,,,,,,634080.0,,1,0,0,1,1
1789661774397.0,3.3,0.15014961,0.23988047,9.862318,0.00015271618,-0.0006108647,-0.00030543236,-55.875004,-14.55,4.5,9.866377444553526,0.0006998334372370701,0.15020607596996607,0.23987148117016224,9.862574198326076,,,,,,,,634080.0,,1,0,0,1,1
1789661774407.0,3.31,0.15014961,0.23988047,9.862318,0.00015271618,-0.0006108647,-0.00030543236,-55.875004,-14.55,4.5,9.866377444553526,0.0006998334372370701,0.15036000425590504,0.23987402364492139,9.86328659549201,,,,,,,,634080.0,,1,0,0,1,1
1789661774417.0,3.32,0.15074782,0.23988047,9.865009,0.00015271618,-0.0006108647,-0.00030543236,-55.350002,-14.925,3.45,9.869076457055298,0.0006998334372370701,0.1505414610222011,0.23987728166313652,9.864101662521502,,,,,,,,634080.0,,1,0,0,1,1
1789661774427.0,3.33,0.15074782,0.23988047,9.865009,0.00015271618,-0.0006108647,-0.00030543236,-55.350002,-14.925,3.45,9.869076457055298,0.0006998334372370701,0.15069162578213688,0.23988969064594376,9.864752590381917,,,,,,,,634080.0,,1,0,0,1,1
1789661774437.0,3.34,0.15074782,0.23988047,9.865009,0.00015271618,-0.0006108647,-0.00030543236,-55.350002,-14.925,3.45,9.869076457055298,0.0006998334372370701,0.15077192607128626,0.23990917280433102,9.865080789221832,,,,,,,,634080.0,,1,0,0,1,1
1789661774447.0,3.35,0.15074782,0.23988047,9.865009,0.00015271618,-0.0006108647,-0.00030543236,-55.350002,-14.925,3.45,9.869076457055298,0.0006998334372370701,0.15078587157951448,0.23991651155526503,9.86513187321466,,,,,,,,634080.0,,1,0,0,1,1
1789661774457.0,3.36,0.15074782,0.23988047,9.865009,0.00015271618,-0.0006108647,-0.00030543236,-55.350002,-14.925,3.45,9.869076457055298,0.0006998334372370701,0.1507679514908417,0.2398873255953927,9.865089089220133,,,,,,,,634080.0,,1,0,0,1,1
1789661774467.0,3.37,0.15074782,0.23988047,9.865009,-0.0009162971,0.0006108647,0.00015271618,-55.350002,-14.925,3.45,9.869076457055298,0.0011117905777655666,0.1507530103240216,0.23982070550545756,9.865104950720513,,,,,,,,634080.0,,1,0,0,1,1
1789661774477.0,3.38,0.15074782,0.23988047,9.865009,-0.0009162971,0.0006108647,0.00015271618,-55.350002,-14.925,3.45,9.869076457055298,0.0011117905777655666,0.1507520447321142,0.2397644414002146,9.865167633627237,,,,,,,,634080.0,,1,0,0,1,1
1789661774487.0,3.39,0.15074782,0.23988047,9.865009,-0.0009162971,0.0006108647,0.00015271618,-55.350002,-14.925,3.45,9.869076457055298,0.0011117905777655666,0.15074987802130824,0.23980738606747987,9.865103768855887,,,,,,,,634080.0,,1,0,0,1,1
1789661774497.0,3.4,0.15074782,0.23988047,9.865009,-0.0009162971,0.0006108647,0.00015271618,-55.350002,-14.925,3.45,9.869076457055298,0.0011117905777655666,0.15072218438328613,0.240026134564796,9.86472012875652,,,,,,,,634080.0,,1,0,0,1,1
1789661774507.0,3.41,0.15074782,0.23988047,9.865009,-0.0009162971,0.0006108647,0.00015271618,-55.350002,-14.925,3.45,9.869076457055298,0.0011117905777655666,0.150657109162024,0.24041588036504333,9.863981499487469,,,,,,,,634080.0,,1,0,0,1,1
1789661774517.0,3.42,0.15044872,0.24137598,9.862019,-0.0009162971,0.0006108647,0.00015271618,-55.350002,-14.925,3.45,9.866119598780038,0.0011117905777655666,0.15056551784409858,0.2408680102053557,9.863077366752954,,,,,,,,634080.0,,1,0,0,1,1
1789661774527.0,3.43,0.15044872,0.24137598,9.862019,-0.0009162971,0.0006108647,0.00015271618,-55.875004,-14.55,4.425,9.866119598780038,0.0011117905777655666,0.15047431157546964,0.24123090630141183,9.862308283931672,,,,,,,,634080.0,,1,0,0,1,1
1789661774537.0,3.44,0.15044872,0.24137598,9.862019,-0.0009162971,0.0006108647,0.00015271618,-55.875004,-14.55,4.425,9.866119598780038,0.0011117905777655666,0.1504115171225581,0.24141310497870197,9.861883388115553,,,,,,,,634080.0,,1,0,0,1,1
1789661774547.0,3.45,0.15044872,0.24137598,9.862019,-0.0009162971,0.0006108647,0.00015271618,-55.875004,-14.55,4.425,9.866119598780038,0.0011117905777655666,0.15039541363026218,0.24144046673042513,9.86180237471681,,,,,,,,634080.0,,1,0,0,1,1
1789661774557.0,3.46,0.15044872,0.24137598,9.862019,-0.0009162971,0.0006108647,0.00015271618,-55.875004,-14.55,4.425,9.866119598780038,0.0011117905777655666,0.1504293077678927,0.24141864019200768,9.861904704837395,,,,,,,,634080.0,,1,0,0,1,1
1789661774567.0,3.47,0.15044872,0.24137598,9.862019,0.00015271618,-0.00030543236,-0.0010690133,-55.875004,-14.55,4.425,9.866119598780038,0.0011222301875042624,0.15049491874675003,0.241434931522931,9.862014573795049,,,,,,,,634080.0,,1,0,0,1,1
1789661774577.0,3.48,0.15044872,0.24137598,9.862019,0.00015271618,-0.00030543236,-0.0010690133,-55.875004,-14.55,4.425,9.866119598780038,0.0011222301875042624,0.15054512456876346,0.24147884360090652,9.862053383047552,,,,,,,,634080.0,,1,0,0,1,1
1789661774587.0,3.49,0.15044872,0.24137598,9.862019,0.00015271618,-0.00030543236,-0.0010690133,-55.875004,-14.55,4.425,9.866119598780038,0.0011222301875042624,0.1505114222319615,0.24144268751115155,9.862052488764538,,,,,,,,634080.0,,1,0,0,1,1
1789661774597.0,3.5,0.15044872,0.24137598,9.862019,0.00015271618,-0.00030543236,-0.0010690133,-55.875004,-14.55,4.425,9.866119598780038,0.0011222301875042624,0.15033866596019307,0.24120681806357525,9.862087607385103,,,,,,,,634080.0,,1,0,0,1,1
1789661774607.0,3.51,0.15044872,0.24137598,9.862019,0.00015271618,-0.00030543236,-0.0010690133,-55.875004,-14.55,4.425,9.866119598780038,0.0011222301875042624,0.15003130618123164,0.24074989150632914,9.862201581943316,,,,,,,,634080.0,,1,0,0,1,1
1789661774617.0,3.52,0.14925231,0.23958136,9.862617,0.00015271618,-0.00030543236,-0.0010690133,-56.100002,-14.475,4.425,9.866655439853405,0.0011222301875042624,0.14966884322246451,0.24019341755759416,9.862372660446844,,,,,,,,634080.0,,1,0,0,1,1
1789661774627.0,3.53,0.14925231,0.23958136,9.862617,0.00015271618,-0.00030543236,-0.0010690133,-56.100002,-14.475,4.425,9.866655439853405,0.0011222301875042624,0.14936426235925462,0.23973289513660032,9.862540292580979,,,,,,,,634080.0,,1,0,0,1,1
1789661774637.0,3.54,0.14925231,0.23958136,9.862617,0.00015271618,-0.00030543236,-0.0010690133,-56.100002,-14.475,4.425,9.866655439853405,0.0011222301875042624,0.14919381298821136,0.23950548397211507,9.862653673412586,,,,,,,,634080.0,,1,0,0,1,1
1789661774647.0,3.55,0.14925231,0.23958136,9.862617,0.00015271618,-0.00030543236,-0.0010690133,-56.100002,-14.475,4.425,9.866655439853405,0.0011222301875042624,0.1491578891739809,0.2395019392097054,9.862697477552311,,,,,,,,634080.0,,1,0,0,1,1
1789661774657.0,3.56,0.14925231,0.23958136,9.862617,0.00015271618,-0.00030543236,-0.0010690133,-56.100002,-14.475,4.425,9.866655439853405,0.0011222301875042624,0.1492004110556493,0.23958776289396885,9.862682007482688,,,,,,,,634080.0,,1,0,0,1,1
1789661774667.0,3.57,0.14925231,0.23958136,9.862617,0.00015271618,-0.0006108647,0.00015271618,-56.100002,-14.475,4.425,9.866655439853405,0.0006479198599932517,0.1492581016419702,0.23960916043924518,9.862623703104104,,,,,,,,634080.0,,1,0,0,1,1
1789661774677.0,3.58,0.14925231,0.23958136,9.862617,0.00015271618,-0.0006108647,0.00015271618,-56.100002,-14.475,4.425,9.866655439853405,0.0006479198599932517,0.14929408386466164,0.23950934408820473,9.862545284268638,,,,,,,,634080.0,,1,0,0,1,1
1789661774687.0,3.59,0.14925231,0.23958136,9.862617,0.00015271618,-0.0006108647,0.00015271618,-56.100002,-14.475,4.425,9.866655439853405,0.0006479198599932517,0.14929838688573346,0.23938495345034377,9.862493461412448,,,,,,,,634080.0,,1,0,0,1,1
1789661774697.0,3.6,0.14925231,0.23958136,9.862617,0.00015271618,-0.0006108647,0.00015271618,-56.100002,-14.475,4.425,9.866655439853405,0.0006479198599932517,0.14927140657297774,0.23944175549516003,9.862542481817972,,,,,,,,634080.0,,1,0,0,1,1
1789661774707.0,3.61,0.14925231,0.23958136,9.862617,0.00015271618,-0.0006108647,0.00015271618,-56.100002,-14.475,4.425,9.866655439853405,0.0006479198599932517,0.14921434426159083,0.23985761060455527,9.862757915064373,,,,,,,,634080.0,,1,0,0,1,1
1789661774717.0,3.62,0.14925231,0.23958136,9.862617,0.00015271618,-0.0006108647,0.00015271618,-55.800003,-14.775001,4.3500004,9.866655439853405,0.0006479198599932517,0.1491339557333812,0.24063184777538335,9.863138238777541,,,,,,,,634080.0,,1,0,0,1,1
1789661774727.0,3.63,0.14895321,0.2425724,9.864112,0.00015271618,-0.0006108647,0.00015271618,-55.800003,-14.775001,4.3500004,9.868218379046699,0.0006479198599932517,0.14904907800789008,0.24154443036978637,9.86359019478282,,,,,,,,634080.0,,1,0,0,1,1
1789661774737.0,3.64,0.14895321,0.2425724,9.864112,0.00015271618,-0.0006108647,0.00015271618,-55.800003,-14.775001,4.3500004,9.868218379046699,0.0006479198599932517,0.14898440583925662,0.2422855374827882,9.863975029925026,,,,,,,,634080.0,,1,0,0,1,1
1789661774747.0,3.65,0.14895321,0.2425724,9.864112,0.00015271618,-0.0006108647,0.00015271618,-55.800003,-14.775001,4.3500004,9.868218379046699,0.0006479198599932517,0.14895357869353515,0.24266484735801583,9.864193550481264,,,,,,,,634080.0,,1,0,0,1,1
1789661774757.0,3.66,0.14895321,0.2425724,9.864112,0.00015271618,-0.0006108647,0.00015271618,-55.800003,-14.775001,4.3500004,9.868218379046699,0.0006479198599932517,0.14894829263826517,0.24272465216616154,9.864237247891223,,,,,,,,634080.0,,1,0,0,1,1
1789661774767.0,3.67,0.14895321,0.2425724,9.864112,0.00015271618,-0.0006108647,-0.00030543236,-55.800003,-14.775001,4.3500004,9.868218379046699,0.0006998334372370701,0.1489459294580898,0.2426666671079596,9.864171080992948,,,,,,,,634080.0,,1,0,0,1,1
1789661774777.0,3.68,0.14895321,0.2425724,9.864112,0.00015271618,-0.0006108647,-0.00030543236,-55.800003,-14.775001,4.3500004,9.868218379046699,0.0006998334372370701,0.14893113057729074,0.24266537283494868,9.864080039115912,,,,,,,,634080.0,,1,0,0,1,1
1789661774787.0,3.69,0.14895321,0.2425724,9.864112,0.00015271618,-0.0006108647,-0.00030543236,-55.800003,-14.775001,4.3500004,9.868218379046699,0.0006998334372370701,0.14891412639993967,0.24272085736710888,9.864029470895789,,,,,,,,634080.0,,1,0,0,1,1
1789661774797.0,3.7,0.14895321,0.2425724,9.864112,0.00015271618,-0.0006108647,-0.00030543236,-55.800003,-14.775001,4.3500004,9.868218379046699,0.0006998334372370701,0.14892937639352433,0.2426596656505057,9.86405490109205,,,,,,,,634080.0,,1,0,0,1,1
1789661774807.0,3.71,0.14895321,0.2425724,9.864112,0.00015271618,-0.0006108647,-0.00030543236,-55.800003,-14.775001,4.3500004,9.868218379046699,0.0006998334372370701,0.14901121631712114,0.2422824014121679,9.864163850314807,,,,,,,,634080.0,,1,0,0,1,1
1789661774817.0,3.72,0.14895321,0.2425724,9.864112,0.00015271618,-0.0006108647,-0.00030543236,-55.95,-14.925,5.025,9.868218379046699,0.0006998334372370701,0.1491624684580987,0.24154818097620193,9.864334396520654,,,,,,,,634080.0,,1,0,0,1,1
1789661774827.0,3.73,0.14955142,0.23958136,9.864711,0.00015271618,-0.0006108647,-0.00030543236,-55.95,-14.925,5.025,9.868753111148564,0.0006998334372370701,0.149343145377505,0.24064431477145246,9.864517880087805,,,,,,,,634080.0,,1,0,0,1,1
1789661774837.0,3.74,0.14955142,0.23958136,9.864711,0.00015271618,-0.0006108647,-0.00030543236,-55.95,-14.925,5.025,9.868753111148564,0.0006998334372370701,0.1494934532631752,0.239872234189761,9.864659429626055,,,,,,,,634080.0,,1,0,0,1,1
1789661774847.0,3.75,0.14955142,0.23958136,9.864711,0.00015271618,-0.0006108647,-0.00030543236,-55.95,-14.925,5.025,9.868753111148564,0.0006998334372370701,0.1495739866744687,0.2394434178686953,9.864729192936748,,,,,,,,634080.0,,1,0,0,1,1
1789661774857.0,3.76,0.14955142,0.23958136,9.864711,0.00015271618,-0.0006108647,-0.00030543236,-55.95,-14.925,5.025,9.868753111148564,0.0006998334372370701,0.14958862716390897,0.23936023333217532,9.864738555423205,,,,,,,,634080.0,,1,0,0,1,1
1789661774867.0,3.77,0.14955142,0.23958136,9.864711,0.00015271618,-0.0006108647,-0.00030543236,-55.95,-14.925,5.025,9.868753111148564,0.0006998334372370701,0.14957274664652473,0.23946430993551343,9.864726052891472,,,,,,,,634080.0,,1,0,0,1,1
1789661774877.0,3.78,0.14955142,0.23958136,9.864711,0.0013744456,-0.00030543236,0.00015271618,-55.95,-14.925,5.025,9.868753111148564,0.0014162315719995519,0.14956082569468632,0.23958004938083172,9.864724558812352,,,,,,,,634080.0,,1,0,0,1,1
1789661774887.0,3.79,0.14955142,0.23958136,9.864711,0.0013744456,-0.00030543236,0.00015271618,-55.95,-14.925,5.025,9.868753111148564,0.0014162315719995519,0.14956122674270858,0.23962507259897542,9.864735378636338,,,,,,,,634080.0,,1,0,0,1,1
1789661774897.0,3.8,0.14955142,0.23958136,9.864711,0.0013744456,-0.00030543236,0.00015271618,-55.95,-14.925,5.025,9.868753111148564,0.0014162315719995519,0.14955528555843636,0.2396220060868719,9.864727545555098,,,,,,,,634080.0,,1,0,0,1,1
1789661774907.0,3.81,0.14955142,0.23958136,9.864711,0.0013744456,-0.00030543236,0.00015271618,-55.95,-14.925,5.025,9.868753111148564,0.0014162315719995519,0.14951818966170255,0.23963468683494227,9.864662322158408,,,,,,,,634080.0,,1,0,0,1,1
1789661774917.0,3.82,0.14955142,0.23958136,9.864711,0.0013744456,-0.00030543236,0.00015271618,-55.95,-14.925,5.025,9.868753111148564,0.0014162315719995519,0.14944411499827256,0.23969513264344958,9.864525146283382,,,,,,,,634080.0,,1,0,0,1,1
1789661774927.0,3.83,0.14925231,0.23988047,9.864112,0.0013744456,-0.00030543236,0.00015271618,-55.725002,-14.775001,5.1000004,9.868157094436214,0.0014162315719995519,0.14935508971553008,0.23977682178499737,9.864340756675025,,,,,,,,634080.0,,1,0,0,1,1
1789661774937.0,3.84,0.14925231,0.23988047,9.864112,0.0013744456,-0.00030543236,0.00015271618,-55.725002,-14.775001,5.1000004,9.868157094436214,0.0014162315719995519,0.14928540657567235,0.23982717617216198,9.864160862265516,,,,,,,,634080.0,,1,0,0,1,1
1789661774947.0,3.85,0.14925231,0.23988047,9.864112,0.0013744456,-0.00030543236,0.00015271618,-55.725002,-14.775001,5.1000004,9.868157094436214,0.0014162315719995519,0.14925431603773678,0.23982628652694177,9.86403807041201,,,,,,,,634080.0,,1,0,0,1,1
1789661774957.0,3.86,0.14925231,0.23988047,9.864112,0.0013744456,-0.00030543236,0.00015271618,-55.725002,-14.775001,5.1000004,9.868157094436214,0.0014162315719995519,0.1492509939721731,0.2398178201035925,9.864006975290659,,,,,,,,634080.0,,1,0,0,1,1
1789661774967.0,3.87,0.14925231,0.23988047,9.864112,0.0013744456,-0.00030543236,0.00015271618,-55.725002,-14.775001,5.1000004,9.868157094436214,0.0014162315719995519,0.14924583662307794,0.2398763545140344,9.864074285569014,,,,,,,,634080.0,,1,0,0,1,1
1789661774977.0,3.88,0.14925231,0.23988047,9.864112,0.00015271618,-0.00030543236,-0.00015271618,-55.725002,-14.775001,5.1000004,9.868157094436214,0.0003740767164670295,0.1492203405419855,0.24002335574571257,9.864204588038648,,,,,,,,634080.0,,1,0,0,1,1
1789661774987.0,3.89,0.14925231,0.23988047,9.864112,0.00015271618,-0.00030543236,-0.00015271618,-55.725002,-14.775001,5.1000004,9.868157094436214,0.0003740767164670295,0.14919233727199968,0.2401536412666587,9.864304576405686,,,,,,,,634080.0,,1,0,0,1,1
1789661774997.0,3.9,0.14925231,0.23988047,9.864112,0.00015271618,-0.00030543236,-0.00015271618,-55.725002,-14.775001,5.1000004,9.868157094436214,0.0003740767164670295,0.1492138705452136,0.24005007855592642,9.864237344356923,,,,,,,,634080.0,,1,0,0,1,1
1789661775007.0,3.91,0.14925231,0.23988047,9.864112,0.00015271618,-0.00030543236,-0.00015271618,-55.725002,-14.775001,5.1000004,9.868157094436214,0.0003740767164670295,0.14933624933757247,0.23951521405946216,9.863892036140678,,,,,,,,634080.0,,1,0,0,1,1
1789661775017.0,3.92,0.14925231,0.23988047,9.864112,0.00015271618,-0.00030543236,-0.00015271618,-56.025,-14.700001,4.875,9.868157094436214,0.0003740767164670295,0.14956424613617386,0.2385426009491759,9.86327697597564,,,,,,,,634080.0,,1,0,0,1,1
1789661775027.0,3.93,0.15014961,0.23599213,9.861719,0.00015271618,-0.00030543236,-0.00015271618,-56.025,-14.700001,4.875,9.865684914174286,0.0003740767164670295,0.14983865407096936,0.23737606941303055,9.862551212515795,,,,,,,,634080.0,,1,0,0,1,1
1789661775037.0,3.94,0.15014961,0.23599213,9.861719,0.00015271618,-0.00030543236,-0.00015271618,-56.025,-14.700001,4.875,9.865684914174286,0.0003740767164670295,0.15006884071459273,0.23637507378012695,9.861941551929455,,,,,,,,634080.0,,1,0,0,1,1
1789661775047.0,3.95,0.15014961,0.23599213,9.861719,0.00015271618,-0.00030543236,-0.00015271618,-56.025,-14.700001,4.875,9.865684914174286,0.0003740767164670295,0.15019178349307946,0.23578865520741304,9.861601542339733,,,,,,,,634080.0,,1,0,0,1,1
1789661775057.0,3.96,0.15014961,0.23599213,9.861719,0.00015271618,-0.00030543236,-0.00015271618,-56.025,-14.700001,4.875,9.865684914174286,0.0003740767164670295,0.15020831785847694,0.23563500313579297,9.861532099669105,,,,,,,,634080.0,,1,0,0,1,1
1789661775067.0,3.97,0.15014961,0.23599213,9.861719,0.00015271618,-0.00030543236,-0.00015271618,-56.025,-14.700001,4.875,9.865684914174286,0.0003740767164670295,0.15017080241269568,0.23576538611985576,9.861619369449297,,,,,,,,634080.0,,1,0,0,1,1
1789661775077.0,3.98,0.15014961,0.23599213,9.861719,0.00015271618,0.0006108647,-0.0010690133,-56.025,-14.700001,4.875,9.865684914174286,0.001240672135947597,0.15013972069990927,0.23600542472579464,9.861733781710933,,,,,,,,634080.0,,1,0,0,1,1
1789661775087.0,3.99,0.15014961,0.23599213,9.861719,0.00015271618,0.0006108647,-0.0010690133,-56.025,-14.700001,4.875,9.865684914174286,0.001240672135947597,0.1501444632886448,0.23622635533854164,9.8617997957422,,,,,,,,634080.0,,1,0,0,1,1
1789661775097.0,4.0,0.15014961,0.23599213,9.861719,0.00015271618,0.0006108647,-0.0010690133,-56.025,-14.700001,4.875,9.865684914174286,0.001240672135947597,0.1501702534252099,0.23631733724739923,9.861800545572851,,,,,,,,634080.0,,1,0,0,1,1
1789661775107.0,4.01,0.15014961,0.23599213,9.861719,0.00015271618,0.0006108647,-0.0010690133,-56.025,-14.700001,4.875,9.865684914174286,0.001240672135947597,0.15017280360905194,0.23615276576831762,9.861746771068088,,,,,,,,634080.0,,1,0,0,1,1
1789661775117.0,4.02,0.15014961,0.23599213,9.861719,0.00015271618,0.0006108647,-0.0010690133,-56.550003,-14.925,6.0,9.865684914174286,0.001240672135947597,0.15010943360028783,0.23564786451619935,9.861655448708042,,,,,,,,634080.0,,1,0,0,1,1
1789661775127.0,4.03,0.15014961,0.23599213,9.861719,0.00015271618,0.0006108647,-0.0010690133,-56.550003,-14.925,6.0,9.865684914174286,0.001240672135947597,0.14996859256627212,0.23487513022722564,9.861552868523814,,,,,,,,634080.0,,1,0,0,1,1
1789661775137.0,4.04,0.14955142,0.23330021,9.861421,0.00015271618,0.0006108647,-0.0010690133,-56.550003,-14.925,6.0,9.865313920725029,0.001240672135947597,0.14977944659665296,0.23409926285656446,9.86147979694359,,,,,,,,634080.0,,1,0,0,1,1
1789661775147.0,4.05,0.14955142,0.23330021,9.861421,0.00015271618,0.0006108647,-0.0010690133,-56.550003,-14.925,6.0,9.865313920725029,0.001240672135947597,0.1495962388432513,0.23362430337986298,9.861471360853125,,,,,,,,634080.0,,1,0,0,1,1
1789661775157.0,4.06,0.14955142,0.23330021,9.861421,0.00015271618,0.0006108647,-0.0010690133,-56.550003,-14.925,6.0,9.865313920725029,0.001240672135947597,0.14947238725707718,0.23353505223808166,9.861516576706293,,,,,,,,634080.0,,1,0,0,1,1
1789661775167.0,4.07,0.14955142,0.23330021,9.861421,0.00015271618,0.0006108647,-0.0010690133,-56.550003,-14.925,6.0,9.865313920725029,0.001240672135947597,0.14944304589058047,0.23357004742731402,9.861539208108786,,,,,,,,634080.0,,1,0,0,1,1
1789661775177.0,4.08,0.14955142,0.23330021,9.861421,-0.0010690133,-0.0015271618,0.00015271618,-56.550003,-14.925,6.0,9.865313920725029,0.0018703836051970524,0.14951532160381278,0.23330776041414825,9.861442542664037,,,,,,,,634080.0,,1,0,0,1,1
1789661775187.0,4.09,0.14955142,0.23330021,9.861421,-0.0010690133,-0.0015271618,0.00015271618,-56.550003,-14.925,6.0,9.865313920725029,0.0018703836051970524,0.1496522010950812,0.2326040138037616,9.861213829235107,,,,,,,,634080.0,,1,0,0,1,1
1789661775197.0,4.1,0.14955142,0.23330021,9.861421,-0.0010690133,-0.0015271618,0.00015271618,-56.550003,-14.925,6.0,9.865313920725029,0.0018703836051970524,0.149755303014315,0.23196378198874365,9.861016314561754,,,,,,,,634080.0,,1,0,0,1,1
1789661775207.0,4.11,0.14955142,0.23330021,9.861421,-0.0010690133,-0.0015271618,0.00015271618,-56.550003,-14.925,6.0,9.865313920725029,0.0018703836051970524,0.14968133710659803,0.23245882125583736,9.861163872581411,,,,,,,,634080.0,,1,0,0,1,1
1789661775217.0,4.12,0.14955142,0.23330021,9.861421,-0.0010690133,-0.0015271618,0.00015271618,-55.050003,-14.700001,3.45,9.865313920725029,0.0018703836051970524,0.14931835485855643,0.2350559549010189,9.86193324003333,,,,,,,,634080.0,,1,0,0,1,1
1789661775227.0,4.13,0.14955142,0.23330021,9.861421,-0.0010690133,-0.0015271618,0.00015271618,-55.050003,-14.700001,3.45,9.865313920725029,0.0018703836051970524,0.14868547613068328,0.23974987874688464,9.863318952875709,,,,,,,,634080.0,,1,0,0,1,1
1789661775237.0,4.14,0.1471586,0.2515455,9.866804,-0.0010690133,-0.0015271618,0.00015271618,-55.050003,-14.700001,3.45,9.871106927115125,0.0018703836051970524,0.1479626057576011,0.2452694435722496,9.86494970433993,,,,,,,,634080.0,,1,0,0,1,1
1789661775247.0,4.15,0.1471586,0.2515455,9.866804,-0.0010690133,-0.0015271618,0.00015271618,-55.050003,-14.700001,3.45,9.871106927115125,0.0018703836051970524,0.14739161874236067,0.24978998288367565,9.866292576824014,,,,,,,,634080.0,,1,0,0,1,1
1789661775257.0,4.16,0.1471586,0.2515455,9.866804,-0.0010690133,-0.0015271618,0.00015271618,-55.050003,-14.700001,3.45,9.871106927115125,0.0018703836051970524,0.14711189350499523,0.2521537980801316,9.867003735671574,,,,,,,,634080.0,,1,0,0,1,1
1789661775267.0,4.17,0.1471586,0.2515455,9.866804,-0.0010690133,-0.0015271618,0.00015271618,-55.050003,-14.700001,3.45,9.871106927115125,0.0018703836051970524,0.1470712564086883,0.2525552525140491,9.867126726698443,,,,,,,,634080.0,,1,0,0,1,1
1789661775277.0,4.18,0.1471586,0.2515455,9.866804,0.00015271618,0.00015271618,0.00015271618,-55.050003,-14.700001,3.45,9.871106927115125,0.00026451218289783404,0.1470921587258582,0.25214503987856923,9.86698452247984,,,,,,,,634080.0,,1,0,0,1,1
1789661775287.0,4.19,0.1471586,0.2515455,9.866804,0.00015271618,0.00015271618,0.00015271618,-55.050003,-14.700001,3.45,9.871106927115125,0.00026451218289783404,0.14703825056386097,0.2519757515613626,9.866888152137387,,,,,,,,634080.0,,1,0,0,1,1
1789661775297.0,4.2,0.1471586,0.2515455,9.866804,0.00015271618,0.00015271618,0.00015271618,-55.050003,-14.700001,3.45,9.871106927115125,0.00026451218289783404,0.146948349974908,0.25216836046815244,9.866907309467459,,,,,,,,634080.0,,1,0,0,1,1
1789661775307.0,4.21,0.1471586,0.2515455,9.866804,0.00015271618,0.00015271618,0.00015271618,-55.050003,-14.700001,3.45,9.871106927115125,0.00026451218289783404,0.14702997328800252,0.2518940088008986,9.866858086790957,,,,,,,,634080.0,,1,0,0,1,1
1789661775317.0,4.22,0.1471586,0.2515455,9.866804,0.00015271618,0.00015271618,0.00015271618,-56.025,-14.85,3.9,9.871106927115125,0.00026451218289783404,0.14750223507119486,0.25013793641901216,9.866489990460252,,,,,,,,634080.0,,1,0,0,1,1
1789661775327.0,4.23,0.1471586,0.2515455,9.866804,0.00015271618,0.00015271618,0.00015271618,-56.025,-14.85,3.9,9.871106927115125,0.00026451218289783404,0.14839658459575658,0.24665107687691046,9.865718902494805,,,,,,,,634080.0,,1,0,0,1,1
1789661775337.0,4.24,0.15074782,0.23718855,9.863514,0.00015271618,0.00015271618,0.00015271618,-56.025,-14.85,3.9,9.867516999817221,0.00026451218289783404,0.14948292621733544,0.24231656419778683,9.864722919530209,,,,,,,,634080.0,,1,0,0,1,1
1789661775347.0,4.25,0.15074782,0.23718855,9.863514,0.00015271618,0.00015271618,0.00015271618,-56.025,-14.85,3.9,9.867516999817221,0.00026451218289783404,0.15040382247371956,0.23859590045752116,9.863828332138594,,,,,,,,634080.0,,1,0,0,1,1
1789661775357.0,4.26,0.15074782,0.23718855,9.863514,0.00015271618,0.00015271618,0.00015271618,-56.025,-14.85,3.9,9.867516999817221,0.00026451218289783404,0.1509120527133716,0.23652560935576344,9.863293932950212,,,,,,,,634080.0,,1,0,0,1,1
1789661775367.0,4.27,0.15074782,0.23718855,9.863514,0.00015271618,0.00015271618,0.00015271618,-56.025,-14.85,3.9,9.867516999817221,0.00026451218289783404,0.15100864170155676,0.23612612623529064,9.863177763156623,,,,,,,,634080.0,,1,0,0,1,1
1789661775377.0,4.28,0.15074782,0.23718855,9.863514,0.00015271618,0.00015271618,0.00015271618,-56.025,-14.85,3.9,9.867516999817221,0.00026451218289783404,0.1508842084847714,0.23663010114486138,9.863360470612575,,,,,,,,634080.0,,1,0,0,1,1
1789661775387.0,4.29,0.15074782,0.23718855,9.863514,0.00015271618,0.00030543236,-0.0009162971,-56.025,-14.85,3.9,9.867516999817221,0.000977860692347009,0.1507483725658414,0.23718145336921803,9.863644876952113,,,,,,,,634080.0,,1,0,0,1,1
1789661775397.0,4.3,0.15074782,0.23718855,9.863514,0.00015271618,0.00030543236,-0.0009162971,-56.025,-14.85,3.9,9.867516999817221,0.000977860692347009,0.1506980867998818,0.23738198504278174,9.863827341634902,,,,,,,,634080.0,,1,0,0,1,1
1789661775407.0,4.31,0.15074782,0.23718855,9.863514,0.00015271618,0.00030543236,-0.0009162971,-56.025,-14.85,3.9,9.867516999817221,0.000977860692347009,0.1507023933103937,0.23736087517163645,9.863730468788347,,,,,,,,634080.0,,1,0,0,1,1
1789661775417.0,4.32,0.15074782,0.23718855,9.863514,0.00015271618,0.00030543236,-0.0009162971,-55.800003,-14.775001,4.5750003,9.867516999817221,0.000977860692347009,0.1506768909637661,0.23746978385710682,9.863252309828296,,,,,,,,634080.0,,1,0,0,1,1
1789661775427.0,4.33,0.15074782,0.23718855,9.863514,0.00015271618,0.00030543236,-0.0009162971,-55.800003,-14.775001,4.5750003,9.867516999817221,0.000977860692347009,0.15057056118261708,0.23791879383239536,9.862441128815322,,,,,,,,634080.0,,1,0,0,1,1
1789661775437.0,4.34,0.15014961,0.23958136,9.860523,0.00015271618,0.00030543236,-0.0009162971,-55.800003,-14.775001,4.5750003,9.864575914197813,0.000977860692347009,0.15040157586119643,0.23861958513404816,9.861517300226078,,,,,,,,634080.0,,1,0,0,1,1
1789661775447.0,4.35,0.15014961,0.23958136,9.860523,0.00015271618,0.00030543236,-0.0009162971,-55.800003,-14.775001,4.5750003,9.864575914197813,0.000977860692347009,0.15023066310329722,0.2392960719345285,9.860771595370835,,,,,,,,634080.0,,1,0,0,1,1
1789661775457.0,4.36,0.15014961,0.23958136,9.860523,0.00015271618,0.00030543236,-0.0009162971,-55.800003,-14.775001,4.5750003,9.864575914197813,0.000977860692347009,0.15011068037579323,0.23971397902337602,9.86039137163783,,,,,,,,634080.0,,1,0,0,1,1
1789661775467.0,4.37,0.15014961,0.23958136,9.860523,0.00015271618,0.00030543236,-0.0009162971,-55.800003,-14.775001,4.5750003,9.864575914197813,0.000977860692347009,0.1500604502727452,0.23982320052404363,9.860355382134403,,,,,,,,634080.0,,1,0,0,1,1
1789661775477.0,4.38,0.15014961,0.23958136,9.860523,0.00015271618,0.00030543236,-0.0009162971,-55.800003,-14.775001,4.5750003,9.864575914197813,0.000977860692347009,0.1500746953782038,0.23973018164159485,9.860478465451667,,,,,,,,634080.0,,1,0,0,1,1
1789661775487.0,4.39,0.15014961,0.23958136,9.860523,0.00015271618,-0.0006108647,-0.00030543236,-55.800003,-14.775001,4.5750003,9.864575914197813,0.0006998334372370701,0.1501413702133728,0.23957917085150685,9.860556641912828,,,,,,,,634080.0,,1,0,0,1,1
1789661775497.0,4.4,0.15014961,0.23958136,9.860523,0.00015271618,-0.0006108647,-0.00030543236,-55.800003,-14.775001,4.5750003,9.864575914197813,0.0006998334372370701,0.15023627933172606,0.23946626325944556,9.860502639771802,,,,,,,,634080.0,,1,0,0,1,1
1789661775507.0,4.41,0.15014961,0.23958136,9.860523,0.00015271618,-0.0006108647,-0.00030543236,-55.800003,-14.775001,4.5750003,9.864575914197813,0.0006998334372370701,0.15030073512449074,0.2394347049554632,9.860394155879668,,,,,,,,634080.0,,1,0,0,1,1
1789661775517.0,4.42,0.15014961,0.23958136,9.860523,0.00015271618,-0.0006108647,-0.00030543236,-56.550003,-14.775001,5.775,9.864575914197813,0.0006998334372370701,0.15024054178663754,0.23950979952336127,9.860416348910864,,,,,,,,634080.0,,1,0,0,1,1
1789661775527.0,4.43,0.15014961,0.23958136,9.860523,0.00015271618,-0.0006108647,-0.00030543236,-56.550003,-14.775001,5.775,9.864575914197813,0.0006998334372370701,0.1499748754686169,0.2397102583222634,9.860730173337824,,,,,,,,634080.0,,1,0,0,1,1
1789661775537.0,4.44,0.15014961,0.23958136,9.860523,0.00015271618,-0.0006108647,-0.00030543236,-56.550003,-14.775001,5.775,9.864575914197813,0.0006998334372370701,0.1495103541985994,0.24002139981980505,9.861343519843095,,,,,,,,634080.0,,1,0,0,1,1
1789661775547.0,4.45,0.148355,0.24077778,9.862916,0.00015271618,-0.0006108647,-0.00030543236,-56.550003,-14.775001,5.775,9.866969908154314,0.0006998334372370701,0.14896919602515726,0.24037294702458592,9.862081132802238,,,,,,,,634080.0,,1,0,0,1,1
1789661775557.0,4.46,0.148355,0.24077778,9.862916,0.00015271618,-0.0006108647,-0.00030543236,-56.550003,-14.775001,5.775,9.866969908154314,0.0006998334372370701,0.1485252871925431,0.24066474262896959,9.862691823064242,,,,,,,,634080.0,,1,0,0,1,1
1789661775567.0,4.47,0.148355,0.24077778,9.862916,0.00015271618,-0.0006108647,-0.00030543236,-56.550003,-14.775001,5.775,9.866969908154314,0.0006998334372370701,0.14829068318547559,0.24082719670007768,9.863014874724474,,,,,,,,634080.0,,1,0,0,1,1
1789661775577.0,4.48,0.148355,0.24077778,9.862916,0.00015271618,-0.0006108647,-0.00030543236,-56.550003,-14.775001,5.775,9.866969908154314,0.0006998334372370701,0.1482502497854634,0.24086070797285367,9.863068873377793,,,,,,,,634080.0,,1,0,0,1,1
1789661775587.0,4.49,0.148355,0.24077778,9.862916,0.00015271618,-0.0006108647,0.00015271618,-56.550003,-14.775001,5.775,9.866969908154314,0.0006479198599932517,0.14829663092681403,0.24082122124237434,9.862999557695346,,,,,,,,634080.0,,1,0,0,1,1
1789661775597.0,4.5,0.148355,0.24077778,9.862916,0.00015271618,-0.0006108647,0.00015271618,-56.550003,-14.775001,5.775,9.866969908154314,0.0006479198599932517,0.14832651549633985,0.24077300883284908,9.862947778856073,,,,,,,,634080.0,,1,0,0,1,1
1789661775607.0,4.51,0.148355,0.24077778,9.862916,0.00015271618,-0.0006108647,0.00015271618,-56.550003,-14.775001,5.775,9.866969908154314,0.0006479198599932517,0.14831748617200805,0.24075139376394894,9.862948850795247,,,,,,,,634080.0,,1,0,0,1,1
1789661775617.0,4.52,0.148355,0.24077778,9.862916,0.00015271618,-0.0006108647,0.00015271618,-55.425003,-14.775001,5.1000004,9.866969908154314,0.0006479198599932517,0.148333262338383,0.24075689102051528,9.862929382207563,,,,,,,,634080.0,,1,0,0,1,1
1789661775627.0,4.53,0.148355,0.24077778,9.862916,0.00015271618,-0.0006108647,0.00015271618,-55.425003,-14.775001,5.1000004,9.866969908154314,0.0006479198599932517,0.1484618835106454,0.24077234763328745,9.862789407902307,,,,,,,,634080.0,,1,0,0,1,1
1789661775637.0,4.54,0.148355,0.24077778,9.862916,0.00015271618,-0.0006108647,0.00015271618,-55.425003,-14.775001,5.1000004,9.866969908154314,0.0006479198599932517,0.1487368640863111,0.24078284141423412,9.862500682130158,,,,,,,,634080.0,,1,0,0,1,1
1789661775647.0,4.55,0.14955142,0.24077778,9.861719,0.00015271618,-0.0006108647,0.00015271618,-55.425003,-14.775001,5.1000004,9.86579146351304,0.0006479198599932517,0.14910214712764128,0.24078472835031392,9.862142698998156,,,,,,,,634080.0,,1,0,0,1,1
1789661775657.0,4.56,0.14955142,0.24077778,9.861719,0.00015271618,-0.0006108647,0.00015271618,-55.425003,-14.775001,5.1000004,9.86579146351304,0.0006479198599932517,0.14944540672097942,0.24078269865324486,9.861846673626882,,,,,,,,634080.0,,1,0,0,1,1
1789661775667.0,4.57,0.14955142,0.24077778,9.861719,0.00015271618,-0.0006108647,0.00015271618,-55.425003,-14.775001,5.1000004,9.86579146351304,0.0006479198599932517,0.14966519919864035,0.24078170740060786,9.861696082484238,,,,,,,,634080.0,,1,0,0,1,1
1789661775677.0,4.58,0.14955142,0.24077778,9.861719,0.00015271618,-0.0006108647,0.00015271618,-55.425003,-14.775001,5.1000004,9.86579146351304,0.0006479198599932517,0.1497159946637065,0.24078150290947292,9.861670620347358,,,,,,,,634080.0,,1,0,0,1,1
1789661775687.0,4.59,0.14955142,0.24077778,9.861719,0.00015271618,0.0006108647,-0.0010690133,-55.425003,-14.775001,5.1000004,9.86579146351304,0.001240672135947597,0.14961443714271105,0.24077766319228375,9.861679193081947,,,,,,,,634080.0,,1,0,0,1,1
1789661775697.0,4.6,0.14955142,0.24077778,9.861719,0.00015271618,0.0006108647,-0.0010690133,-55.425003,-14.775001,5.1000004,9.86579146351304,0.001240672135947597,0.149434192911249,0.24076794383271588,9.861650287864276,,,,,,,,634080.0,,1,0,0,1,1
1789661775707.0,4.61,0.14955142,0.24077778,9.861719,0.00015271618,0.0006108647,-0.0010690133,-55.425003,-14.775001,5.1000004,9.86579146351304,0.001240672135947597,0.14930581106134885,0.24075870918157286,9.861605030851567,,,,,,,,634080.0,,1,0,0,1,1
1789661775717.0,4.62,0.14955142,0.24077778,9.861719,0.00015271618,0.0006108647,-0.0010690133,-56.025,-14.775001,5.025,9.86579146351304,0.001240672135947597,0.14939334239152693,0.24076516586153066,9.861653014187482,,,,,,,,634080.0,,1,0,0,1,1
1789661775727.0,4.63,0.14955142,0.24077778,9.861719,0.00015271618,0.0006108647,-0.0010690133,-56.025,-14.775001,5.025,9.86579146351304,0.001240672135947597,0.14981459004768413,0.24080277073404432,9.86190581730728,,,,,,,,634080.0,,1,0,0,1,1
1789661775737.0,4.64,0.14955142,0.24077778,9.861719,0.00015271618,0.0006108647,-0.0010690133,-56.025,-14.775001,5.025,9.86579146351304,0.001240672135947597,0.1505370726905468,0.24087481153087678,9.862369175332347,,,,,,,,634080.0,,1,0,0,1,1
1789661775747.0,4.65,0.15224335,0.24107689,9.863514,0.00015271618,0.0006108647,-0.0010690133,-56.025,-14.775001,5.025,9.86763419126932,0.001240672135947597,0.15135016895478157,0.24096659176515245,9.862907544990941,,,,,,,,634080.0,,1,0,0,1,1
1789661775757.0,4.66,0.15224335,0.24107689,9.863514,0.00015271618,0.0006108647,-0.0010690133,-56.025,-14.775001,5.025,9.86763419126932,0.001240672135947597,0.15197986936494837,0.24105217374494667,9.863327859914657,,,,,,,,634080.0,,1,0,0,1,1
1789661775767.0,4.67,0.15224335,0.24107689,9.863514,0.00015271618,0.0006108647,-0.0010690133,-56.025,-14.775001,5.025,9.86763419126932,0.001240672135947597,0.15227659213435235,0.24110778239807873,9.863522285153083,,,,,,,,634080.0,,1,0,0,1,1
1789661775777.0,4.68,0.15224335,0.24107689,9.863514,0.00015271618,0.0006108647,-0.0010690133,-56.025,-14.775001,5.025,9.86763419126932,0.001240672135947597,0.15231490465240455,0.2411209820181702,9.863545859811515,,,,,,,,634080.0,,1,0,0,1,1
1789661775787.0,4.69,0.15224335,0.24107689,9.863514,0.0013744456,0.0019853103,0.00015271618,-56.025,-14.775001,5.025,9.86763419126932,0.0024194792675861563,0.15231055448369804,0.24109317615486575,9.863556466630376,,,,,,,,634080.0,,1,0,0,1,1
1789661775797.0,4.7,0.15224335,0.24107689,9.863514,0.0013744456,0.0019853103,0.00015271618,-56.025,-14.775001,5.025,9.86763419126932,0.0024194792675861563,0.1524162175553089,0.24104180708912887,9.863660480361771,,,,,,,,634080.0,,1,0,0,1,1
1789661775807.0,4.71,0.15224335,0.24107689,9.863514,0.0013744456,0.0019853103,0.00015271618,-56.025,-14.775001,5.025,9.86763419126932,0.0024194792675861563,0.15255597026806053,0.24100380381788192,9.86378476849028,,,,,,,,634080.0,,1,0,0,1,1
1789661775817.0,4.72,0.15224335,0.24107689,9.863514,0.0013744456,0.0019853103,0.00015271618,-56.100002,-14.475,4.5,9.86763419126932,0.0024194792675861563,0.15243745013948812,0.24102984811446565,9.86368618387964,,,,,,,,634080.0,,1,0,0,1,1
1789661775827.0,4.73,0.15224335,0.24107689,9.863514,0.0013744456,0.0019853103,0.00015271618,-56.100002,-14.475,4.5,9.86763419126932,0.0024194792675861563,0.15176189068960738,0.24115965732845945,9.863120370044697,,,,,,,,634080.0,,1,0,0,1,1
1789661775837.0,4.74,0.15224335,0.24107689,9.863514,0.0013744456,0.0019853103,0.00015271618,-56.100002,-14.475,4.5,9.86763419126932,0.0024194792675861563,0.15049226780457092,0.24138902757471614,9.862060929463961,,,,,,,,634080.0,,1,0,0,1,1
1789661775847.0,4.75,0.1471586,0.24197419,9.859326,0.0013744456,0.0019853103,0.00015271618,-56.100002,-14.475,4.5,9.863392739643702,0.0024194792675861563,0.1489524571877925,0.24165925916426084,9.860782497682173,,,,,,,,634080.0,,1,0,0,1,1
1789661775857.0,4.76,0.1471586,0.24197419,9.859326,0.0013744456,0.0019853103,0.00015271618,-56.100002,-14.475,4.5,9.863392739643702,0.0024194792675861563,0.1476421217634086,0.24188788662834115,9.859707610319557,,,,,,,,634080.0,,1,0,0,1,1
1789661775867.0,4.77,0.1471586,0.24197419,9.859326,0.0013744456,0.0019853103,0.00015271618,-56.100002,-14.475,4.5,9.863392739643702,0.0024194792675861563,0.14691027081151783,0.24201936360779783,9.859130077545487,,,,,,,,634080.0,,1,0,0,1,1
1789661775877.0,4.78,0.1471586,0.24197419,9.859326,0.0013744456,0.0019853103,0.00015271618,-56.100002,-14.475,4.5,9.863392739643702,0.0024194792675861563,0.14676587087070017,0.24205193775152228,9.859046703520956,,,,,,,,634080.0,,1,0,0,1,1
1789661775887.0,4.79,0.1471586,0.24197419,9.859326,0.0013744456,0.0019853103,0.00015271618,-56.100002,-14.475,4.5,9.863392739643702,0.0024194792675861563,0.14695546041352367,0.24202236955450224,9.859216752136208,,,,,,,,634080.0,,1,0,0,1,1
1789661775897.0,4.8,0.1471586,0.24197419,9.859326,0.00015271618,0.0006108647,0.00015271618,-56.100002,-14.475,4.5,9.863392739643702,0.0006479198599932517,0.14718733997902167,0.2419720904258036,9.859364196281348,,,,,,,,634080.0,,1,0,0,1,1
1789661775907.0,4.81,0.1471586,0.24197419,9.859326,0.00015271618,0.0006108647,0.00015271618,-56.100002,-14.475,4.5,9.863392739643702,0.0006479198599932517,0.14729958316020558,0.24192870032024255,9.859355766347791,,,,,,,,634080.0,,1,0,0,1,1
1789661775917.0,4.82,0.1471586,0.24197419,9.859326,0.00015271618,0.0006108647,0.00015271618,-56.100002,-14.475,4.5,9.863392739643702,0.0006479198599932517,0.1472807774030221,0.2419114431757922,9.859253779656392,,,,,,,,634080.0,,1,0,0,1,1
1789661775927.0,4.83,0.1471586,0.24197419,9.859326,0.00015271618,0.0006108647,0.00015271618,-56.100002,-14.475,4.5,9.863392739643702,0.0006479198599932517,0.14719293649718918,0.2419417676233949,9.859242462531077,,,,,,,,634080.0,,1,0,0,1,1
1789661775937.0,4.84,0.1471586,0.24197419,9.859326,0.00015271618,0.0006108647,0.00015271618,-56.100002,-14.475,4.5,9.863392739643702,0.0006479198599932517,0.14709299246169882,0.24203779538658735,9.859486954650574,,,,,,,,634080.0,,1,0,0,1,1
1789661775947.0,4.85,0.1471586,0.24197419,9.859326,0.00015271618,0.0006108647,0.00015271618,-56.100002,-14.475,4.5,9.863392739643702,0.0006479198599932517,0.1470059990886454,0.2421941364319535,9.86000998120615,,,,,,,,634080.0,,1,0,0,1,1
1789661775957.0,4.86,0.1468595,0.2425724,9.861421,0.00015271618,0.0006108647,0.00015271618,-56.250004,-14.925,4.65,9.86549710968601,0.0006479198599932517,0.14693876816367898,0.24237125670660625,9.860666301698917,,,,,,,,634080.0,,1,0,0,1,1
1789661775967.0,4.87,0.1468595,0.2425724,9.861421,0.00015271618,0.0006108647,0.00015271618,-56.250004,-14.925,4.65,9.86549710968601,0.0006479198599932517,0.1468956601453163,0.24251393845547384,9.861235624867737,,,,,,,,634080.0,,1,0,0,1,1
1789661775977.0,4.88,0.1468595,0.2425724,9.861421,0.00015271618,0.0006108647,0.00015271618,-56.250004,-14.925,4.65,9.86549710968601,0.0006479198599932517,0.14687692915232103,0.2425877252471781,9.861560774038653,,,,,,,,634080.0,,1,0,0,1,1
1789661775987.0,4.89,0.1468595,0.2425724,9.861421,0.00015271618,0.0006108647,0.00015271618,-56.250004,-14.925,4.65,9.86549710968601,0.0006479198599932517,0.14687034319363398,0.2426006527916161,9.861622131368506,,,,,,,,634080.0,,1,0,0,1,1
1789661775997.0,4.9,0.1468595,0.2425724,9.861421,-0.0009162971,-0.0006108647,0.0,-56.250004,-14.925,4.65,9.86549710968601,0.0011012520407129786,0.14685516677337426,0.24259076157636267,9.861509935477624,,,,,,,,634080.0,,1,0,0,1,1
1789661776007.0,4.91,0.1468595,0.2425724,9.861421,-0.0009162971,-0.0006108647,0.0,-56.250004,-14.925,4.65,9.86549710968601,0.0011012520407129786,0.14682208178141135,0.2425912618329569,9.861350424620642,,,,,,,,634080.0,,1,0,0,1,1
1789661776017.0,4.92,0.1468595,0.2425724,9.861421,-0.0009162971,-0.0006108647,0.0,-56.100002,-14.55,3.6750002,9.86549710968601,0.0011012520407129786,0.1467930963735394,0.24260217956810495,9.86125577247032,,,,,,,,634080.0,,1,0,0,1,1
1789661776027.0,4.93,0.1468595,0.2425724,9.861421,-0.0009162971,-0.0006108647,0.0,-56.100002,-14.55,3.6750002,9.86549710968601,0.0011012520407129786,0.14681928028474261,0.24258994415856552,9.86130901154493,,,,,,,,634080.0,,1,0,0,1,1
