timestamp_ms,relative_time_s,accel_x,accel_y,accel_z,gyro_x,gyro_y,gyro_z,mag_x,mag_y,mag_z,accel_mag,gyro_mag,accel_x_filt,accel_y_filt,accel_z_filt,latitude,longitude,altitude,gnss_speed_m_s,gnss_accuracy,gnss_bearing,gnss_speed_km_h,cell_id,signal_dbm,flag_imu_valid,flag_gnss_valid,flag_speed_ref_valid,flag_outage,flag_cell_valid
1789661149298.0,0.0,0.15014961,0.20638095,9.862916,0.0,0.00030543236,0.00030543236,-47.4,4.5,3.525,9.86621761492022,0.0004319465858996216,0.15014887774030672,0.20638184826358694,9.86291696558114,,,,,,,,,,1,0,0,1,0
1789661149308.0,0.01,0.15014961,0.20638095,9.862916,0.0,0.00030543236,0.00030543236,-47.4,4.5,3.525,9.86621761492022,0.0004319465858996216,0.14949081913682016,0.2066414768981321,9.863197555078766,,,,,,,,634080.0,,1,0,0,1,1
1789661149318.0,0.02,0.15014961,0.20638095,9.862916,0.0,0.00015271618,0.00015271618,-47.4,4.5,3.525,9.86621761492022,0.0002159732929498108,0.1491983238385143,0.2067209932974531,9.86330336487728,,,,,,,,634080.0,,1,0,0,1,1
1789661149328.0,0.03,0.15014961,0.20638095,9.862916,0.0,0.00015271618,0.00015271618,-47.4,4.5,3.525,9.86621761492022,0.0002159732929498108,0.1496863338945201,0.20646636838981472,9.863083505305125,,,,,,,,634080.0,,1,0,0,1,1
1789661149338.0,0.04,0.15014961,0.20638095,9.862916,0.0,0.00015271618,0.00015271618,-47.4,4.5,3.525,9.86621761492022,0.0002159732929498108,0.15122552749806883,0.20582521246458105,9.862524290764311,,,,,,,,634080.0,,1,0,0,1,1
1789661149348.0,0.05,0.15014961,0.20638095,9.862916,0.0,0.00015271618,0.00015271618,-47.4,4.5,3.525,9.86621761492022,0.0002159732929498108,0.15359550551646303,0.20491838423503927,9.861903185118052,,,,,,,,634080.0,,1,0,0,1,1
1789661149358.0,0.06,0.15882361,0.20219351,9.862019,0.0,0.00015271618,0.00015271618,-47.4,4.5,3.525,9.86537003416195,0.0002159732929498108,0.15598741380323472,0.20398103752873722,9.861794626989639,,,,,,,,634080.0,,1,0,0,1,1
1789661149368.0,0.07,0.15882361,0.20219351,9.862019,0.0,0.00015271618,0.00015271618,-47.4,4.5,3.525,9.86537003416195,0.0002159732929498108,0.157425670841717,0.20315969180994467,9.862786250717242,,,,,,,,634080.0,,1,0,0,1,1
1789661149378.0,0.08,0.15882361,0.20219351,9.862019,0.0,0.00015271618,0.00015271618,-47.4,4.5,3.525,9.86537003416195,0.0002159732929498108,0.1574403551038437,0.20236299942353086,9.865031090703106,,,,,,,,634080.0,,1,0,0,1,1
1789661149388.0,0.09,0.15314065,0.20458634,9.870692,0.0,0.00015271618,0.00015271618,-47.4,4.5,3.525,9.873999604418719,0.0002159732929498108,0.15638367886770582,0.20137672678589968,9.868008626417245,,,,,,,,634080.0,,1,0,0,1,1
1789661149398.0,0.1,0.15493527,0.19860429,9.871889,0.0,0.00030543236,0.00030543236,-47.4,4.5,3.525,9.87510207695178,0.0004319465858996216,0.15510649687754394,0.2001653509030425,9.870762825571939,,,,,,,,634080.0,,1,0,0,1,1
1789661149408.0,0.11,0.15493527,0.19860429,9.871889,0.0,0.00030543236,0.00030543236,-49.575,4.275,7.3500004,9.87510207695178,0.0004319465858996216,0.154337432820362,0.19903299210339798,9.872454154924357,,,,,,,,634080.0,,1,0,0,1,1
1789661149418.0,0.12,0.15493527,0.19860429,9.871889,0.0,0.00030543236,0.00030543236,-49.575,4.275,7.3500004,9.87510207695178,0.0004319465858996216,0.15431111510057835,0.19844810185652023,9.872777946309794,,,,,,,,634080.0,,1,0,0,1,1
1789661149428.0,0.13,0.15493527,0.19860429,9.871889,0.0,0.00030543236,0.00030543236,-49.575,4.275,7.3500004,9.87510207695178,0.0004319465858996216,0.15483350172437643,0.19868628288614137,9.871985568232537,,,,,,,,634080.0,,1,0,0,1,1
1789661149438.0,0.14,0.15493527,0.19860429,9.871889,0.0,0.00030543236,0.00030543236,-49.575,4.275,7.3500004,9.87510207695178,0.0004319465858996216,0.1555647600311021,0.19960421587427093,9.870621023847049,,,,,,,,634080.0,,1,0,0,1,1
1789661149448.0,0.15,0.15672988,0.20189442,9.868001,0.0,0.00030543236,0.00030543236,-49.575,4.275,7.3500004,9.871310416966582,0.0004319465858996216,0.15624189748803616,0.20072021921081035,9.869222846437124,,,,,,,,634080.0,,1,0,0,1,1
1789661149458.0,0.16,0.15672988,0.20189442,9.868001,0.0,0.00030543236,0.00030543236,-49.575,4.275,7.3500004,9.871310416966582,0.0004319465858996216,0.1567440419512725,0.2015311595008192,9.868133503292132,,,,,,,,634080.0,,1,0,0,1,1
1789661149468.0,0.17,0.15672988,0.20189442,9.868001,0.0,0.00030543236,0.00030543236,-49.575,4.275,7.3500004,9.871310416966582,0.0004319465858996216,0.1570494684086753,0.2018209213941024,9.867447745705348,,,,,,,,634080.0,,1,0,0,1,1
1789661149478.0,0.18,0.15672988,0.20189442,9.868001,0.0,0.00030543236,0.00030543236,-49.575,4.275,7.3500004,9.871310416966582,0.0004319465858996216,0.1571682579391949,0.20172238116133492,9.867078102541969,,,,,,,,634080.0,,1,0,0,1,1
1789661149488.0,0.19,0.1582254,0.19950159,9.865309,0.0,0.00030543236,0.00030543236,-49.575,4.275,7.3500004,9.868594521364159,0.0004319465858996216,0.15711272366231677,0.20150605035579489,9.866865717174335,,,,,,,,634080.0,,1,0,0,1,1
1789661149498.0,0.2,0.15643078,0.20189442,9.866804,0.0,0.00030543236,-0.0009162971,-49.575,4.275,7.3500004,9.870109073367656,0.000965861947694172,0.1569150138801577,0.20132365381667852,9.866667676629582,,,,,,,,634080.0,,1,0,0,1,1
1789661149508.0,0.21,0.15643078,0.20189442,9.866804,0.0,0.00030543236,-0.0009162971,-49.575,4.275,7.3500004,9.870109073367656,0.000965861947694172,0.156647154861514,0.20117614342478046,9.866427865575986,,,,,,,,634080.0,,1,0,0,1,1
1789661149518.0,0.22,0.15643078,0.20189442,9.866804,0.0,0.00030543236,-0.0009162971,-49.275,4.125,6.9,9.870109073367656,0.000965861947694172,0.1564048860705444,0.20112565795774567,9.866254584606606,,,,,,,,634080.0,,1,0,0,1,1
1789661149528.0,0.23,0.15643078,0.20189442,9.866804,0.0,0.00030543236,-0.0009162971,-49.275,4.125,6.9,9.870109073367656,0.000965861947694172,0.15627095376520328,0.20147160176411016,9.86643211123177,,,,,,,,634080.0,,1,0,0,1,1
1789661149538.0,0.24,0.15643078,0.20189442,9.866804,0.0,0.00030543236,-0.0009162971,-49.275,4.125,6.9,9.870109073367656,0.000965861947694172,0.15628986318503632,0.20260145921913114,9.867254644134794,,,,,,,,634080.0,,1,0,0,1,1
1789661149548.0,0.25,0.15643078,0.20189442,9.866804,0.0,0.00030543236,-0.0009162971,-49.275,4.125,6.9,9.870109073367656,0.000965861947694172,0.15645019253384906,0.2045637275705688,9.868725370914605,,,,,,,,634080.0,,1,0,0,1,1
1789661149558.0,0.26,0.15643078,0.20847467,9.87159,0.0,0.00030543236,-0.0009162971,-49.275,4.125,6.9,9.875030197678537,0.000965861947694172,0.15665746145282405,0.20676645965758889,9.870371751419297,,,,,,,,634080.0,,1,0,0,1,1
1789661149568.0,0.27,0.15643078,0.20847467,9.87159,0.0,0.00030543236,-0.0009162971,-49.275,4.125,6.9,9.875030197678537,0.000965861947694172,0.1567217120985472,0.20818194379071164,9.871417881757145,,,,,,,,634080.0,,1,0,0,1,1
1789661149578.0,0.28,0.15643078,0.20847467,9.87159,0.0,0.00030543236,-0.0009162971,-49.275,4.125,6.9,9.875030197678537,0.000965861947694172,0.1564183729726031,0.20799827550014818,9.871264183700017,,,,,,,,634080.0,,1,0,0,1,1
1789661149588.0,0.29,0.15643078,0.20847467,9.87159,0.0,0.00030543236,-0.0009162971,-49.275,4.125,6.9,9.875030197678537,0.000965861947694172,0.1556403074742114,0.20621423771550032,9.869919253046335,,,,,,,,634080.0,,1,0,0,1,1
1789661149598.0,0.3,0.15403795,0.200698,9.865907,0.0,-0.00015271618,0.00030543236,-49.275,4.125,6.9,9.869150333736599,0.0003414837597440938,0.15455969999722657,0.2036706814365619,9.868022337068671,,,,,,,,634080.0,,1,0,0,1,1
1789661149608.0,0.31,0.15403795,0.200698,9.865907,0.0,-0.00015271618,0.00030543236,-50.025,3.9,7.1250005,9.869150333736599,0.0003414837597440938,0.15365809481483367,0.20147310630736479,9.866416692890612,,,,,,,,634080.0,,1,0,0,1,1
1789661149618.0,0.32,0.15403795,0.200698,9.865907,0.0,-0.00015271618,0.00030543236,-50.025,3.9,7.1250005,9.869150333736599,0.0003414837597440938,0.1535347564087548,0.20027384938460635,9.865603382018389,,,,,,,,634080.0,,1,0,0,1,1
1789661149628.0,0.33,0.15403795,0.200698,9.865907,0.0,-0.00015271618,0.00030543236,-50.025,3.9,7.1250005,9.869150333736599,0.0003414837597440938,0.1545442845163096,0.19997335505163796,9.8654866498793,,,,,,,,634080.0,,1,0,0,1,1
1789661149638.0,0.34,0.15403795,0.200698,9.865907,0.0,-0.00015271618,0.00030543236,-50.025,3.9,7.1250005,9.869150333736599,0.0003414837597440938,0.1564707590735762,0.19999503230797894,9.865553471833321,,,,,,,,634080.0,,1,0,0,1,1
1789661149648.0,0.35,0.16031912,0.19920248,9.864711,0.0,-0.00015271618,0.00030543236,-50.025,3.9,7.1250005,9.868024471078126,0.0003414837597440938,0.15851680711508973,0.19981449058833078,9.865295667727636,,,,,,,,634080.0,,1,0,0,1,1
1789661149658.0,0.36,0.16031912,0.19920248,9.864711,0.0,-0.00015271618,0.00030543236,-50.025,3.9,7.1250005,9.868024471078126,0.0003414837597440938,0.1597349431293779,0.19931882470398254,9.864574279658001,,,,,,,,634080.0,,1,0,0,1,1
1789661149668.0,0.37,0.16031912,0.19920248,9.864711,0.0,-0.00015271618,0.00030543236,-50.025,3.9,7.1250005,9.868024471078126,0.0003414837597440938,0.15966303955920202,0.1988121311792324,9.86372770213357,,,,,,,,634080.0,,1,0,0,1,1
1789661149678.0,0.38,0.16031912,0.19920248,9.864711,0.0,-0.00015271618,0.00030543236,-50.025,3.9,7.1250005,9.868024471078126,0.0003414837597440938,0.15866296480165631,0.198749358641524,9.863365399133485,,,,,,,,634080.0,,1,0,0,1,1
1789661149688.0,0.39,0.15284155,0.19710876,9.858429,0.0,-0.00015271618,0.00030543236,-50.025,3.9,7.1250005,9.861583785108563,0.0003414837597440938,0.15764171244576985,0.1993950143625314,9.863938971597825,,,,,,,,634080.0,,1,0,0,1,1
1789661149698.0,0.4,0.15882361,0.20219351,9.8682995,0.0,0.00030543236,0.00030543236,-50.025,3.9,7.1250005,9.871648402180853,0.0004319465858996216,0.1573628050483763,0.20060928558982738,9.865373058105817,,,,,,,,634080.0,,1,0,0,1,1
1789661149708.0,0.41,0.15882361,0.20219351,9.8682995,0.0,0.00030543236,0.00030543236,-49.725002,3.7500002,7.3500004,9.871648402180853,0.0004319465858996216,0.1579194833460454,0.20189306219152145,9.867079758600848,,,,,,,,634080.0,,1,0,0,1,1
1789661149718.0,0.42,0.15882361,0.20219351,9.8682995,0.0,0.00030543236,0.00030543236,-49.725002,3.7500002,7.3500004,9.871648402180853,0.0004319465858996216,0.1587613080921417,0.20266158043764054,9.868370585475251,,,,,,,,634080.0,,1,0,0,1,1
1789661149728.0,0.43,0.15882361,0.20219351,9.8682995,0.0,0.00030543236,0.00030543236,-49.725002,3.7500002,7.3500004,9.871648402180853,0.0004319465858996216,0.15916091562378432,0.2025698205183563,9.868891849786143,,,,,,,,634080.0,,1,0,0,1,1
1789661149738.0,0.44,0.15882361,0.20219351,9.8682995,0.0,0.00030543236,0.00030543236,-49.725002,3.7500002,7.3500004,9.871648402180853,0.0004319465858996216,0.15871437709915373,0.2017116537156124,9.868723585336841,,,,,,,,634080.0,,1,0,0,1,1
1789661149748.0,0.45,0.15882361,0.20219351,9.8682995,0.0,0.00030543236,0.00030543236,-49.725002,3.7500002,7.3500004,9.871648402180853,0.0004319465858996216,0.1575629822054268,0.20059854721898815,9.868158773541563,,,,,,,,634080.0,,1,0,0,1,1
1789661149758.0,0.46,0.15493527,0.19860429,9.867104,0.0,0.00030543236,0.00030543236,-49.725002,3.7500002,7.3500004,9.870318634609136,0.0004319465858996216,0.15626085206569512,0.1998893907856264,9.867444366677006,,,,,,,,634080.0,,1,0,0,1,1
1789661149768.0,0.47,0.15493527,0.19860429,9.867104,0.0,0.00030543236,0.00030543236,-49.725002,3.7500002,7.3500004,9.870318634609136,0.0004319465858996216,0.15540548899969298,0.19996226129776418,9.866695132056325,,,,,,,,634080.0,,1,0,0,1,1
1789661149778.0,0.48,0.15493527,0.19860429,9.867104,0.0,0.00030543236,0.00030543236,-49.725002,3.7500002,7.3500004,9.870318634609136,0.0004319465858996216,0.1552781581522466,0.20061880421971603,9.865966900292225,,,,,,,,634080.0,,1,0,0,1,1
1789661149788.0,0.49,0.15732808,0.20668006,9.863813,0.0,0.00030543236,0.00030543236,-49.725002,3.7500002,7.3500004,9.867232422058736,0.0004319465858996216,0.15573088517010653,0.20123006222066464,9.865340082777543,,,,,,,,634080.0,,1,0,0,1,1
1789661149798.0,0.5,0.15613168,0.19980069,9.865009,0.0,-0.00015271618,0.00030543236,-49.725002,3.7500002,7.3500004,9.868267324475209,0.0003414837597440938,0.15635175027510792,0.2012648717911212,9.86490970087542,,,,,,,,634080.0,,1,0,0,1,1
1789661149808.0,0.51,0.15613168,0.19980069,9.865009,0.0,-0.00015271618,0.00030543236,-49.95,3.45,6.525,9.868267324475209,0.0003414837597440938,0.15672144697304122,0.2007252027159935,9.864721345161568,,,,,,,,634080.0,,1,0,0,1,1
1789661149818.0,0.52,0.15613168,0.19980069,9.865009,0.0,-0.00015271618,0.00030543236,-49.95,3.45,6.525,9.868267324475209,0.0003414837597440938,0.15657798060891312,0.20008874864880782,9.86475374446545,,,,,,,,634080.0,,1,0,0,1,1
1789661149828.0,0.53,0.15613168,0.19980069,9.865009,0.0,-0.00015271618,0.00030543236,-49.95,3.45,6.525,9.868267324475209,0.0003414837597440938,0.15587872300903569,0.19986663471900987,9.864963901087608,,,,,,,,634080.0,,1,0,0,1,1
1789661149838.0,0.54,0.15613168,0.19980069,9.865009,0.0,-0.00015271618,0.00030543236,-49.95,3.45,6.525,9.868267324475209,0.0003414837597440938,0.1548269708295995,0.20021741254847186,9.865317673204029,,,,,,,,634080.0,,1,0,0,1,1
1789661149848.0,0.55,0.15314065,0.20189442,9.865907,0.0,-0.00015271618,0.00030543236,-49.95,3.45,6.525,9.869160772231778,0.0003414837597440938,0.15383807520690235,0.2009135291567463,9.865754507510124,,,,,,,,634080.0,,1,0,0,1,1
1789661149858.0,0.56,0.15314065,0.20189442,9.865907,0.0,-0.00015271618,0.00030543236,-49.95,3.45,6.525,9.869160772231778,0.0003414837597440938,0.1533607113969209,0.201599536681189,9.866128419417178,,,,,,,,634080.0,,1,0,0,1,1
1789661149868.0,0.57,0.15314065,0.20189442,9.865907,0.0,-0.00015271618,0.00030543236,-49.95,3.45,6.525,9.869160772231778,0.0003414837597440938,0.1535931496698636,0.20206968209298734,9.866211298742332,,,,,,,,634080.0,,1,0,0,1,1
1789661149878.0,0.58,0.15314065,0.20189442,9.865907,0.0,-0.00015271618,0.00030543236,-49.95,3.45,6.525,9.869160772231778,0.0003414837597440938,0.15430727297363583,0.20234496119439502,9.865801358293671,,,,,,,,634080.0,,1,0,0,1,1
1789661149888.0,0.59,0.1576272,0.20219351,9.866505,0.0,-0.00015271618,0.00030543236,-49.95,3.45,6.525,9.86983533118415,0.0003414837597440938,0.15497262022326455,0.20254731599728618,9.864882005881427,,,,,,,,634080.0,,1,0,0,1,1
1789661149898.0,0.6,0.15433706,0.20309082,9.862318,0.0,0.00030543236,0.00030543236,-49.95,3.45,6.525,9.86561615624598,0.0004319465858996216,0.1551278277401285,0.2027420833833923,9.863697082049454,,,,,,,,634080.0,,1,0,0,1,1
1789661149908.0,0.61,0.15433706,0.20309082,9.862318,0.0,0.00030543236,0.00030543236,-50.100002,4.05,7.9500003,9.86561615624598,0.0004319465858996216,0.15471722531322135,0.20290232145325787,9.862645406364274,,,,,,,,634080.0,,1,0,0,1,1
1789661149918.0,0.62,0.15433706,0.20309082,9.862318,0.0,0.00030543236,0.00030543236,-50.100002,4.05,7.9500003,9.86561615624598,0.0004319465858996216,0.15413865454611575,0.20299368922213876,9.862056489610685,,,,,,,,634080.0,,1,0,0,1,1
1789661149928.0,0.63,0.15433706,0.20309082,9.862318,0.0,0.00030543236,0.00030543236,-50.100002,4.05,7.9500003,9.86561615624598,0.0004319465858996216,0.15398649445203247,0.20306067008433676,9.862024547604385,,,,,,,,634080.0,,1,0,0,1,1
1789661149938.0,0.64,0.15433706,0.20309082,9.862318,0.0,0.00030543236,0.00030543236,-50.100002,4.05,7.9500003,9.86561615624598,0.0004319465858996216,0.15467164371224978,0.20321432435932024,9.862413868231977,,,,,,,,634080.0,,1,0,0,1,1
1789661149948.0,0.65,0.15433706,0.20309082,9.862318,0.0,0.00030543236,0.00030543236,-50.100002,4.05,7.9500003,9.86561615624598,0.0004319465858996216,0.15614604202016483,0.20353030272069741,9.862999806030672,,,,,,,,634080.0,,1,0,0,1,1
1789661149958.0,0.66,0.15972091,0.20428723,9.864711,0.0,0.00030543236,0.00030543236,-50.100002,4.05,7.9500003,9.868118724202365,0.0004319465858996216,0.15790541042720443,0.20395166052794966,9.863636155945116,,,,,,,,634080.0,,1,0,0,1,1
1789661149968.0,0.67,0.15972091,0.20428723,9.864711,0.0,0.00030543236,0.00030543236,-50.100002,4.05,7.9500003,9.868118724202365,0.0004319465858996216,0.15929351053949384,0.20428523755472353,9.864344723379823,,,,,,,,634080.0,,1,0,0,1,1
1789661149978.0,0.68,0.15972091,0.20428723,9.864711,0.0,0.00030543236,0.00030543236,-50.100002,4.05,7.9500003,9.868118724202365,0.0004319465858996216,0.15990725116904939,0.20430044601074906,9.865256279090602,,,,,,,,634080.0,,1,0,0,1,1
1789661149988.0,0.69,0.15972091,0.20428723,9.864711,0.0,0.00030543236,0.00030543236,-50.100002,4.05,7.9500003,9.868118724202365,0.0004319465858996216,0.15980076601815965,0.2038634237930352,9.866428638357288,,,,,,,,634080.0,,1,0,0,1,1
1789661149998.0,0.7,0.15882361,0.20219351,9.869197,0.0,0.00030543236,-0.0006108647,-50.100002,4.05,7.9500003,9.872545597736613,0.0006829675015996439,0.15935450570740445,0.20303066889884339,9.867703791480642,,,,,,,,634080.0,,1,0,0,1,1
1789661150008.0,0.71,0.15882361,0.20219351,9.869197,0.0,0.00030543236,-0.0006108647,-49.800003,3.825,8.025001,9.872545597736613,0.0006829675015996439,0.15895503838999406,0.2020726895703368,9.868766074694882,,,,,,,,634080.0,,1,0,0,1,1
1789661150018.0,0.72,0.15882361,0.20219351,9.869197,0.0,0.00030543236,-0.0006108647,-49.800003,3.825,8.025001,9.872545597736613,0.0006829675015996439,0.1587520976469383,0.2014298499410122,9.8693625373877,,,,,,,,634080.0,,1,0,0,1,1
1789661150028.0,0.73,0.15882361,0.20219351,9.869197,0.0,0.00030543236,-0.0006108647,-49.800003,3.825,8.025001,9.872545597736613,0.0006829675015996439,0.1586503536500985,0.20157739940351468,9.86947171214964,,,,,,,,634080.0,,1,0,0,1,1
1789661150038.0,0.74,0.15882361,0.20219351,9.869197,0.0,0.00030543236,-0.0006108647,-49.800003,3.825,8.025001,9.872545597736613,0.0006829675015996439,0.15848780534515697,0.20276585493201812,9.869271948619852,,,,,,,,634080.0,,1,0,0,1,1
1789661150048.0,0.75,0.15882361,0.20219351,9.869197,0.0,0.00030543236,-0.0006108647,-49.800003,3.825,8.025001,9.872545597736613,0.0006829675015996439,0.15821604484178034,0.20472214610426398,9.868962028487097,,,,,,,,634080.0,,1,0,0,1,1
1789661150058.0,0.76,0.15702899,0.20787647,9.868001,0.0,0.00030543236,-0.0006108647,-49.800003,3.825,8.025001,9.871439331043932,0.0006829675015996439,0.15792049343448328,0.20657730832340307,9.868595219963025,,,,,,,,634080.0,,1,0,0,1,1
1789661150068.0,0.77,0.15702899,0.20787647,9.868001,0.0,0.00030543236,-0.0006108647,-49.800003,3.825,8.025001,9.871439331043932,0.0006829675015996439,0.15768296174801377,0.20724640758728607,9.86804874612279,,,,,,,,634080.0,,1,0,0,1,1
1789661150078.0,0.78,0.15702899,0.20787647,9.868001,0.0,0.00030543236,-0.0006108647,-49.800003,3.825,8.025001,9.871439331043932,0.0006829675015996439,0.1574571093661874,0.2061117237790496,9.867144656694812,,,,,,,,634080.0,,1,0,0,1,1
1789661150088.0,0.79,0.15972091,0.20338993,9.866206,0.0,0.00030543236,-0.0006108647,-49.800003,3.825,8.025001,9.869594675930346,0.0006829675015996439,0.1571163433031999,0.20349150721229298,9.865830331249839,,,,,,,,634080.0,,1,0,0,1,1
1789661150098.0,0.8,0.15553348,0.19800608,9.862916,-0.0009162971,0.00030543236,-0.0007635809,-49.800003,3.825,8.025001,9.866129387666366,0.0012312372203797243,0.15662297876261153,0.2004694106920194,9.86428161678286,,,,,,,,634080.0,,1,0,0,1,1
1789661150108.0,0.81,0.15553348,0.19800608,9.862916,-0.0009162971,0.00030543236,-0.0007635809,-49.2,3.825,7.05,9.866129387666366,0.0012312372203797243,0.15610320202986544,0.19819656017369908,9.862867395242949,,,,,,,,634080.0,,1,0,0,1,1
1789661150118.0,0.82,0.15553348,0.19800608,9.862916,-0.0009162971,0.00030543236,-0.0007635809,-49.2,3.825,7.05,9.866129387666366,0.0012312372203797243,0.15572252279104926,0.1972278932869753,9.862034794138921,,,,,,,,634080.0,,1,0,0,1,1
1789661150128.0,0.83,0.15553348,0.19800608,9.862916,-0.0009162971,0.00030543236,-0.0007635809,-49.2,3.825,7.05,9.866129387666366,0.0012312372203797243,0.15550653067990658,0.19736720069727445,9.862179110945288,,,,,,,,634080.0,,1,0,0,1,1
1789661150138.0,0.84,0.15553348,0.19800608,9.862916,-0.0009162971,0.00030543236,-0.0007635809,-49.2,3.825,7.05,9.866129387666366,0.0012312372203797243,0.15531860975801687,0.19801311695222387,9.863477005131218,,,,,,,,634080.0,,1,0,0,1,1
1789661150148.0,0.85,0.15553348,0.19800608,9.862916,-0.0009162971,0.00030543236,-0.0007635809,-49.2,3.825,7.05,9.866129387666366,0.0012312372203797243,0.15502614550258165,0.19864123766412145,9.865693151341492,,,,,,,,634080.0,,1,0,0,1,1
1789661150158.0,0.86,0.15463616,0.19980069,9.870394,-0.0009162971,0.00030543236,-0.0007635809,-49.2,3.825,7.05,9.87362701204274,0.0012312372203797243,0.15468822404909063,0.1990893186776103,9.868132420820247,,,,,,,,634080.0,,1,0,0,1,1
1789661150168.0,0.87,0.15463616,0.19980069,9.870394,-0.0009162971,0.00030543236,-0.0007635809,-49.2,3.825,7.05,9.87362701204274,0.0012312372203797243,0.15457564765235488,0.19954386881486638,9.869914822083231,,,,,,,,634080.0,,1,0,0,1,1
1789661150178.0,0.88,0.15463616,0.19980069,9.870394,-0.0009162971,0.00030543236,-0.0007635809,-49.2,3.825,7.05,9.87362701204274,0.0012312372203797243,0.15498264179455196,0.20030356375620986,9.870465406019822,,,,,,,,634080.0,,1,0,0,1,1
1789661150188.0,0.89,0.15463616,0.19980069,9.870394,-0.0009162971,0.00030543236,-0.0007635809,-49.2,3.825,7.05,9.87362701204274,0.0012312372203797243,0.15597536939267853,0.20148752111147894,9.869847650702143,,,,,,,,634080.0,,1,0,0,1,1
1789661150198.0,0.9,0.15882361,0.20458634,9.867402,0.0,-0.0,0.00030543236,-49.2,3.825,7.05,9.870800511570074,0.00030543236,0.15729193820372242,0.2028947176235711,9.86866786485372,,,,,,,,634080.0,,1,0,0,1,1
1789661150208.0,0.91,0.15882361,0.20458634,9.867402,0.0,-0.0,0.00030543236,-49.2,3.9,7.2000003,9.870800511570074,0.00030543236,0.1584857580461646,0.20412639826761259,9.86763982136426,,,,,,,,634080.0,,1,0,0,1,1
1789661150218.0,0.92,0.15882361,0.20458634,9.867402,0.0,-0.0,0.00030543236,-49.2,3.9,7.2000003,9.870800511570074,0.00030543236,0.15918687220714708,0.20485764815513846,9.867152684237196,,,,,,,,634080.0,,1,0,0,1,1
1789661150228.0,0.93,0.15882361,0.20458634,9.867402,0.0,-0.0,0.00030543236,-49.2,3.9,7.2000003,9.870800511570074,0.00030543236,0.15926739804738033,0.20501264743630565,9.867129405789232,,,,,,,,634080.0,,1,0,0,1,1
1789661150238.0,0.94,0.15882361,0.20458634,9.867402,0.0,-0.0,0.00030543236,-49.2,3.9,7.2000003,9.870800511570074,0.00030543236,0.15882508552219288,0.2047219242358633,9.86719986062296,,,,,,,,634080.0,,1,0,0,1,1
1789661150248.0,0.95,0.15882361,0.20458634,9.867402,0.0,-0.0,0.00030543236,-49.2,3.9,7.2000003,9.870800511570074,0.00030543236,0.15806794659919124,0.20415862418618053,9.866991708218906,,,,,,,,634080.0,,1,0,0,1,1
1789661150258.0,0.96,0.15643078,0.20279172,9.865309,0.0,-0.0,0.00030543236,-49.2,3.9,7.2000003,9.868632972003416,0.00030543236,0.1572087658494207,0.20342012433698542,9.866324627650167,,,,,,,,634080.0,,1,0,0,1,1
1789661150268.0,0.97,0.15643078,0.20279172,9.865309,0.0,-0.0,0.00030543236,-49.2,3.9,7.2000003,9.868632972003416,0.00030543236,0.15640490890075198,0.20252732895178388,9.865236934051074,,,,,,,,634080.0,,1,0,0,1,1
1789661150278.0,0.98,0.15643078,0.20279172,9.865309,0.0,-0.0,0.00030543236,-49.2,3.9,7.2000003,9.868632972003416,0.00030543236,0.15573588447666487,0.20149667664401671,9.86390870416005,,,,,,,,634080.0,,1,0,0,1,1
1789661150288.0,0.99,0.15463616,0.19890338,9.861121,0.0,-0.0,0.00030543236,-49.2,3.9,7.2000003,9.864338917190345,0.00030543236,0.15521093887422496,0.20039347332529528,9.862565210674363,,,,,,,,634080.0,,1,0,0,1,1
1789661150298.0,1.0,0.15463616,0.19890338,9.861121,0.0,-0.0,0.00030543236,-49.2,3.9,7.2000003,9.864338917190345,0.00030543236,0.15479917918158784,0.19932608751307576,9.861405298499873,,,,,,,,634080.0,,1,0,0,1,1
1789661150308.0,1.01,0.15463616,0.19890338,9.861121,0.0,-0.0,0.00030543236,-49.2,3.9,7.2000003,9.864338917190345,0.00030543236,0.15447754515588416,0.19843896219724605,9.860589266152251,,,,,,,,634080.0,,1,0,0,1,1
1789661150318.0,1.02,0.15463616,0.19890338,9.861121,0.0,-0.0,0.00030543236,-49.2,3.825,6.7500005,9.864338917190345,0.00030543236,0.15428838915137624,0.19796477186201614,9.86029061208709,,,,,,,,634080.0,,1,0,0,1,1
1789661150328.0,1.03,0.15463616,0.19890338,9.861121,0.0,-0.0,0.00030543236,-49.2,3.825,6.7500005,9.864338917190345,0.00030543236,0.15436345640489055,0.19825300229348577,9.8607144389792,,,,,,,,634080.0,,1,0,0,1,1
1789661150338.0,1.04,0.15463616,0.19890338,9.861121,0.0,-0.0,0.00030543236,-49.2,3.825,6.7500005,9.864338917190345,0.00030543236,0.1548523078568963,0.19960818754381723,9.861955500858814,,,,,,,,634080.0,,1,0,0,1,1
1789661150348.0,1.05,0.15463616,0.19890338,9.861121,0.0,-0.0,0.00030543236,-49.2,3.825,6.7500005,9.864338917190345,0.00030543236,0.1557646338126775,0.20195195841959115,9.863753834023223,,,,,,,,634080.0,,1,0,0,1,1
1789661150358.0,1.06,0.1576272,0.20697916,9.867402,0.0,-0.0,0.00030543236,-49.2,3.825,6.7500005,9.870831218112189,0.00030543236,0.15685276856769195,0.20461339916414417,9.865433498381668,,,,,,,,634080.0,,1,0,0,1,1
1789661150368.0,1.07,0.1576272,0.20697916,9.867402,0.0,-0.0,0.00030543236,-49.2,3.825,6.7500005,9.870831218112189,0.00030543236,0.1576769379939542,0.20655557385884862,9.866230904420894,,,,,,,,634080.0,,1,0,0,1,1
1789661150378.0,1.08,0.1576272,0.20697916,9.867402,0.0,-0.0,0.00030543236,-49.2,3.825,6.7500005,9.870831218112189,0.00030543236,0.1578542587427732,0.2069625980762871,9.86581130696258,,,,,,,,634080.0,,1,0,0,1,1
1789661150388.0,1.09,0.1591227,0.20697916,9.861421,0.0,-0.0,0.00030543236,-49.2,3.825,6.7500005,9.864876306653347,0.00030543236,0.15731735146091544,0.2057437753909772,9.86450039001049,,,,,,,,634080.0,,1,0,0,1,1
1789661150398.0,1.1,0.15493527,0.20129621,9.862617,-0.00030543236,0.00030543236,0.00030543236,-49.2,3.825,6.7500005,9.865887653462275,0.0005290243657956681,0.15636917503288797,0.2035707521752304,9.86301300578373,,,,,,,,634080.0,,1,0,0,1,1
1789661150408.0,1.11,0.15493527,0.20129621,9.862617,-0.00030543236,0.00030543236,0.00030543236,-49.800003,3.45,8.325001,9.865887653462275,0.0005290243657956681,0.15546906781236836,0.20146766486285134,9.861972456147837,,,,,,,,634080.0,,1,0,0,1,1
1789661150418.0,1.12,0.15493527,0.20129621,9.862617,-0.00030543236,0.00030543236,0.00030543236,-49.800003,3.45,8.325001,9.865887653462275,0.0005290243657956681,0.15491422032943158,0.2002974742781759,9.861662381244624,,,,,,,,634080.0,,1,0,0,1,1
1789661150428.0,1.13,0.15493527,0.20129621,9.862617,-0.00030543236,0.00030543236,0.00030543236,-49.800003,3.45,8.325001,9.865887653462275,0.0005290243657956681,0.1546830586983982,0.2004504433890017,9.862105550897454,,,,,,,,634080.0,,1,0,0,1,1
1789661150438.0,1.14,0.15493527,0.20129621,9.862617,-0.00030543236,0.00030543236,0.00030543236,-49.800003,3.45,8.325001,9.865887653462275,0.0005290243657956681,0.15456089232001208,0.2017719393256759,9.86320966370147,,,,,,,,634080.0,,1,0,0,1,1
1789661150448.0,1.15,0.15493527,0.20129621,9.862617,-0.00030543236,0.00030543236,0.00030543236,-49.800003,3.45,8.325001,9.865887653462275,0.0005290243657956681,0.15440824642339976,0.20362702407060354,9.86477249173166,,,,,,,,634080.0,,1,0,0,1,1
1789661150458.0,1.16,0.15403795,0.20638095,9.8682995,-0.00030543236,0.00030543236,0.00030543236,-49.800003,3.45,8.325001,9.871659222656714,0.0005290243657956681,0.15431506154289867,0.20510466823014348,9.866436043172731,,,,,,,,634080.0,,1,0,0,1,1
1789661150468.0,1.17,0.15403795,0.20638095,9.8682995,-0.00030543236,0.00030543236,0.00030543236,-49.800003,3.45,8.325001,9.871659222656714,0.0005290243657956681,0.15450776358762458,0.20542182972008177,9.867783629955493,,,,,,,,634080.0,,1,0,0,1,1
1789661150478.0,1.18,0.15403795,0.20638095,9.8682995,-0.00030543236,0.00030543236,0.00030543236,-49.800003,3.45,8.325001,9.871659222656714,0.0005290243657956681,0.1551130532656404,0.2043753486675344,9.868564645416686,,,,,,,,634080.0,,1,0,0,1,1
1789661150488.0,1.19,0.15732808,0.19980069,9.868599,-0.00030543236,0.00030543236,0.00030543236,-49.800003,3.45,8.325001,9.871875134101016,0.0005290243657956681,0.15601216772318316,0.20247789922178458,9.868827324608663,,,,,,,,634080.0,,1,0,0,1,1
1789661150498.0,1.2,0.15732808,0.19980069,9.868599,0.0,0.00030543236,0.00030543236,-49.800003,3.45,8.325001,9.871875134101016,0.0004319465858996216,0.15691562763028732,0.20060008224977258,9.868819729213273,,,,,,,,634080.0,,1,0,0,1,1
1789661150508.0,1.21,0.15732808,0.19980069,9.868599,0.0,0.00030543236,0.00030543236,-50.025,4.05,7.425,9.871875134101016,0.0004319465858996216,0.1575581973168244,0.19940293903648837,9.868758670608317,,,,,,,,634080.0,,1,0,0,1,1
1789661150518.0,1.22,0.15732808,0.19980069,9.868599,0.0,0.00030543236,0.00030543236,-50.025,4.05,7.425,9.871875134101016,0.0004319465858996216,0.1578146468110397,0.1990375774579148,9.868676888548663,,,,,,,,634080.0,,1,0,0,1,1
1789661150528.0,1.23,0.15732808,0.19980069,9.868599,0.0,0.00030543236,0.00030543236,-50.025,4.05,7.425,9.871875134101016,0.0004319465858996216,0.15767083735236045,0.1992825871355276,9.868463613808682,,,,,,,,634080.0,,1,0,0,1,1
1789661150538.0,1.24,0.15732808,0.19980069,9.868599,0.0,0.00030543236,0.00030543236,-50.025,4.05,7.425,9.871875134101016,0.0004319465858996216,0.15716335108327284,0.19986718395237946,9.868035804618708,,,,,,,,634080.0,,1,0,0,1,1
1789661150548.0,1.25,0.15732808,0.19980069,9.868599,0.0,0.00030543236,0.00030543236,-50.025,4.05,7.425,9.871875134101016,0.0004319465858996216,0.15640162774667266,0.2006416511180645,9.867457144709018,,,,,,,,634080.0,,1,0,0,1,1
1789661150558.0,1.26,0.15523437,0.20189442,9.865009,0.0,0.00030543236,0.00030543236,-50.025,4.05,7.425,9.868295781771918,0.0004319465858996216,0.15563431482697834,0.2015051841245607,9.866858101381608,,,,,,,,634080.0,,1,0,0,1,1
1789661150568.0,1.27,0.15523437,0.20189442,9.865009,0.0,0.00030543236,0.00030543236,-50.025,4.05,7.425,9.868295781771918,0.0004319465858996216,0.1552257113240396,0.20225812518625172,9.866220027478272,,,,,,,,634080.0,,1,0,0,1,1
1789661150578.0,1.28,0.15523437,0.20189442,9.865009,0.0,0.00030543236,0.00030543236,-50.025,4.05,7.425,9.868295781771918,0.0004319465858996216,0.1554889651516143,0.20258334718094126,9.865293094961439,,,,,,,,634080.0,,1,0,0,1,1
1789661150588.0,1.29,0.15553348,0.20458634,9.869197,0.0,0.00030543236,0.00030543236,-50.025,4.05,7.425,9.872542512378688,0.0004319465858996216,0.15648266559240728,0.2022111602433628,9.863827514103209,,,,,,,,634080.0,,1,0,0,1,1
1789661150598.0,1.3,0.1594218,0.19950159,9.858728,0.0,0.00030543236,0.00030543236,-50.025,4.05,7.425,9.862034981316572,0.0004319465858996216,0.15793434475100904,0.2011444887408378,9.861912625653837,,,,,,,,634080.0,,1,0,0,1,1
1789661150608.0,1.31,0.1594218,0.19950159,9.858728,0.0,0.00030543236,0.00030543236,-49.65,3.6750002,7.3500004,9.862034981316572,0.0004319465858996216,0.15934657897245874,0.19976335979450663,9.86001838773615,,,,,,,,634080.0,,1,0,0,1,1
1789661150618.0,1.32,0.1594218,0.19950159,9.858728,0.0,0.00030543236,0.00030543236,-49.65,3.6750002,7.3500004,9.862034981316572,0.0004319465858996216,0.16019312987575524,0.198724072117283,9.85865853323697,,,,,,,,634080.0,,1,0,0,1,1
1789661150628.0,1.33,0.1594218,0.19950159,9.858728,0.0,0.00030543236,0.00030543236,-49.65,3.6750002,7.3500004,9.862034981316572,0.0004319465858996216,0.16009362210819447,0.19869319879061198,9.858045157666444,,,,,,,,634080.0,,1,0,0,1,1
1789661150638.0,1.34,0.1594218,0.19950159,9.858728,0.0,0.00030543236,0.00030543236,-49.65,3.6750002,7.3500004,9.862034981316572,0.0004319465858996216,0.15895164867960715,0.19999872681882302,9.8580775673515,,,,,,,,634080.0,,1,0,0,1,1
1789661150648.0,1.35,0.1594218,0.19950159,9.858728,0.0,0.00030543236,0.00030543236,-49.65,3.6750002,7.3500004,9.862034981316572,0.0004319465858996216,0.15705970895541504,0.20232460884932205,9.858583703996068,,,,,,,,634080.0,,1,0,0,1,1
1789661150658.0,1.36,0.15314065,0.20638095,9.859626,0.0,0.00030543236,0.00030543236,-49.65,3.6750002,7.3500004,9.86297470416919,0.0004319465858996216,0.15506777201845962,0.20467743399856536,9.85947741534895,,,,,,,,634080.0,,1,0,0,1,1
1789661150668.0,1.37,0.15314065,0.20638095,9.859626,0.0,0.00030543236,0.00030543236,-49.65,3.6750002,7.3500004,9.86297470416919,0.0004319465858996216,0.15370915158217205,0.20580554427483277,9.860658707318,,,,,,,,634080.0,,1,0,0,1,1
1789661150678.0,1.38,0.15314065,0.20638095,9.859626,0.0,0.00030543236,0.00030543236,-49.65,3.6750002,7.3500004,9.86297470416919,0.0004319465858996216,0.15340129305329078,0.20490653446228993,9.86182024565476,,,,,,,,634080.0,,1,0,0,1,1
1789661150688.0,1.39,0.15463616,0.20219351,9.866505,0.0,0.00030543236,0.00030543236,-49.65,3.6750002,7.3500004,9.869788015580205,0.0004319465858996216,0.15402739728930337,0.20212523938959032,9.862463306237155,,,,,,,,634080.0,,1,0,0,1,1
1789661150698.0,1.4,0.15583257,0.19531415,9.860822,0.0,-0.00015271618,0.00030543236,-49.65,3.6750002,7.3500004,9.86398712097431,0.0003414837597440938,0.15507257676451916,0.19845965011914318,9.862216920817055,,,,,,,,634080.0,,1,0,0,1,1
1789661150708.0,1.41,0.15583257,0.19531415,9.860822,0.0,-0.00015271618,0.00030543236,-49.725002,3.45,8.025001,9.86398712097431,0.0003414837597440938,0.15596981450390213,0.19520502333866563,9.861211881564993,,,,,,,,634080.0,,1,0,0,1,1
1789661150718.0,1.42,0.15583257,0.19531415,9.860822,0.0,-0.00015271618,0.00030543236,-49.725002,3.45,8.025001,9.86398712097431,0.0003414837597440938,0.15637044557927465,0.1934233422382825,9.860167453310433,,,,,,,,634080.0,,1,0,0,1,1
1789661150728.0,1.43,0.15583257,0.19531415,9.860822,0.0,-0.00015271618,0.00030543236,-49.725002,3.45,8.025001,9.86398712097431,0.0003414837597440938,0.15620418796415073,0.1937339288513188,9.860073108396385,,,,,,,,634080.0,,1,0,0,1,1
1789661150738.0,1.44,0.15583257,0.19531415,9.860822,0.0,-0.00015271618,0.00030543236,-49.725002,3.45,8.025001,9.86398712097431,0.0003414837597440938,0.15561189027863412,0.19627563971317383,9.861623901668358,,,,,,,,634080.0,,1,0,0,1,1
1789661150748.0,1.45,0.15583257,0.19531415,9.860822,0.0,-0.00015271618,0.00030543236,-49.725002,3.45,8.025001,9.86398712097431,0.0003414837597440938,0.15487749530891184,0.200613454941153,9.864733780628246,,,,,,,,634080.0,,1,0,0,1,1
1789661150758.0,1.46,0.15403795,0.2108675,9.872487,0.0,-0.00015271618,0.00030543236,-49.725002,3.45,8.025001,9.875940074634183,0.0003414837597440938,0.1543641297762772,0.20571091998204316,9.868484105657307,,,,,,,,634080.0,,1,0,0,1,1
1789661150768.0,1.47,0.15403795,0.2108675,9.872487,0.0,-0.00015271618,0.00030543236,-49.725002,3.45,8.025001,9.875940074634183,0.0003414837597440938,0.1543813615293036,0.21024486378864765,9.871635157126619,,,,,,,,634080.0,,1,0,0,1,1
1789661150778.0,1.48,0.15403795,0.2108675,9.872487,0.0,-0.00015271618,0.00030543236,-49.725002,3.45,8.025001,9.875940074634183,0.0003414837597440938,0.15500097385873096,0.21318513403821074,9.873367642606201,,,,,,,,634080.0,,1,0,0,1,1
1789661150788.0,1.49,0.15672988,0.21595225,9.873684,0.0,-0.00015271618,0.00030543236,-49.725002,3.45,8.025001,9.877288866962477,0.0003414837597440938,0.15597279765337882,0.21421721276582403,9.873685224500571,,,,,,,,634080.0,,1,0,0,1,1
1789661150798.0,1.5,0.15732808,0.212363,9.872487,-0.0012217294,0.0012217294,0.00030543236,-49.725002,3.45,8.025001,9.876023984058286,0.0017545752705951062,0.1568632749438457,0.2137413324999105,9.873216372041776,,,,,,,,634080.0,,1,0,0,1,1
1789661150808.0,1.51,0.15732808,0.212363,9.872487,-0.0012217294,0.0012217294,0.00030543236,-49.95,3.7500002,7.425,9.876023984058286,0.0017545752705951062,0.15734319202008432,0.2125697660756052,9.872668219775687,,,,,,,,634080.0,,1,0,0,1,1
1789661150818.0,1.52,0.15732808,0.212363,9.872487,-0.0012217294,0.0012217294,0.00030543236,-49.95,3.7500002,7.425,9.876023984058286,0.0017545752705951062,0.15740247588463627,0.21158639396704138,9.872385923660598,,,,,,,,634080.0,,1,0,0,1,1
1789661150828.0,1.53,0.15732808,0.212363,9.872487,-0.0012217294,0.0012217294,0.00030543236,-49.95,3.7500002,7.425,9.876023984058286,0.0017545752705951062,0.1573281291388597,0.21149254954985072,9.872278658762454,,,,,,,,634080.0,,1,0,0,1,1
1789661150838.0,1.54,0.15732808,0.212363,9.872487,-0.0012217294,0.0012217294,0.00030543236,-49.95,3.7500002,7.425,9.876023984058286,0.0017545752705951062,0.15747136791074456,0.21259424530880092,9.872054568234256,,,,,,,,634080.0,,1,0,0,1,1
1789661150848.0,1.55,0.15732808,0.212363,9.872487,-0.0012217294,0.0012217294,0.00030543236,-49.95,3.7500002,7.425,9.876023984058286,0.0017545752705951062,0.15797612526646176,0.2145985095434574,9.871507881665822,,,,,,,,634080.0,,1,0,0,1,1
1789661150858.0,1.56,0.1591227,0.21714866,9.868897,-0.0012217294,0.0012217294,0.00030543236,-49.95,3.7500002,7.425,9.872568134523261,0.0017545752705951062,0.158656171778157,0.21657153052745423,9.870626374467083,,,,,,,,634080.0,,1,0,0,1,1
1789661150868.0,1.57,0.1591227,0.21714866,9.868897,-0.0012217294,0.0012217294,0.00030543236,-49.95,3.7500002,7.425,9.872568134523261,0.0017545752705951062,0.1591057211710035,0.21729429267167874,9.86949871170426,,,,,,,,634080.0,,1,0,0,1,1
1789661150878.0,1.58,0.1591227,0.21714866,9.868897,-0.0012217294,0.0012217294,0.00030543236,-49.95,3.7500002,7.425,9.872568134523261,0.0017545752705951062,0.15897069808305464,0.21598897810943793,9.868205078250096,,,,,,,,634080.0,,1,0,0,1,1
1789661150888.0,1.59,0.1591227,0.21714866,9.868897,-0.0012217294,0.0012217294,0.00030543236,-49.95,3.7500002,7.425,9.872568134523261,0.0017545752705951062,0.15819312759347112,0.21294722435873686,9.86684320459933,,,,,,,,634080.0,,1,0,0,1,1
1789661150898.0,1.6,0.15583257,0.20518455,9.864112,0.0,0.00030543236,0.00030543236,-49.95,3.7500002,7.425,9.86747637635761,0.0004319465858996216,0.15705790423355592,0.20945564295491603,9.865606868444821,,,,,,,,634080.0,,1,0,0,1,1
1789661150908.0,1.61,0.15583257,0.20518455,9.864112,0.0,0.00030543236,0.00030543236,-49.275,3.3750002,6.7500005,9.86747637635761,0.0004319465858996216,0.15601917351383116,0.2068921701498936,9.864724021113837,,,,,,,,634080.0,,1,0,0,1,1
1789661150918.0,1.62,0.15583257,0.20518455,9.864112,0.0,0.00030543236,0.00030543236,-49.275,3.3750002,6.7500005,9.86747637635761,0.0004319465858996216,0.1554469447370939,0.20565104572662668,9.864255657786964,,,,,,,,634080.0,,1,0,0,1,1
1789661150928.0,1.63,0.15583257,0.20518455,9.864112,0.0,0.00030543236,0.00030543236,-49.275,3.3750002,6.7500005,9.86747637635761,0.0004319465858996216,0.15546522028039325,0.20485834141841036,9.863987940060001,,,,,,,,634080.0,,1,0,0,1,1
1789661150938.0,1.64,0.15583257,0.20518455,9.864112,0.0,0.00030543236,0.00030543236,-49.275,3.3750002,6.7500005,9.86747637635761,0.0004319465858996216,0.15593628406282167,0.20322245368019853,9.863588401190778,,,,,,,,634080.0,,1,0,0,1,1
1789661150948.0,1.65,0.15583257,0.20518455,9.864112,0.0,0.00030543236,0.00030543236,-49.275,3.3750002,6.7500005,9.86747637635761,0.0004319465858996216,0.15653643354248425,0.20032649320344736,9.862909529781248,,,,,,,,634080.0,,1,0,0,1,1
1789661150958.0,1.66,0.15702899,0.19322042,9.861121,0.0,0.00030543236,0.00030543236,-49.275,3.3750002,6.7500005,9.864263764267783,0.0004319465858996216,0.15687757654596485,0.1971924962174691,9.86214648912265,,,,,,,,634080.0,,1,0,0,1,1
1789661150968.0,1.67,0.15702899,0.19322042,9.861121,0.0,0.00030543236,0.00030543236,-49.275,3.3750002,6.7500005,9.864263764267783,0.0004319465858996216,0.15667120099660156,0.19554129330683498,9.861682126011598,,,,,,,,634080.0,,1,0,0,1,1
1789661150978.0,1.68,0.15702899,0.19322042,9.861121,0.0,0.00030543236,0.00030543236,-49.275,3.3750002,6.7500005,9.864263764267783,0.0004319465858996216,0.15588679065212332,0.19636998530191158,9.8617553712828,,,,,,,,634080.0,,1,0,0,1,1
1789661150988.0,1.69,0.15343975,0.20368902,9.8632145,0.0,0.00030543236,0.00030543236,-49.275,3.3750002,6.7500005,9.866510692578146,0.0004319465858996216,0.15478586664122307,0.1991303086357359,9.862261516470628,,,,,,,,634080.0,,1,0,0,1,1
1789661150998.0,1.7,0.15343975,0.20368902,9.8632145,0.0,0.00030543236,-0.0007635809,-49.275,3.3750002,6.7500005,9.866510692578146,0.0008224017980160182,0.15376971941631384,0.20220462461568883,9.862855932958546,,,,,,,,634080.0,,1,0,0,1,1
1789661151008.0,1.71,0.15343975,0.20368902,9.8632145,0.0,0.00030543236,-0.0007635809,-49.875004,3.3750002,6.9,9.866510692578146,0.0008224017980160182,0.15314824127031265,0.20414895027870536,9.863238782213609,,,,,,,,634080.0,,1,0,0,1,1
1789661151018.0,1.72,0.15343975,0.20368902,9.8632145,0.0,0.00030543236,-0.0007635809,-49.875004,3.3750002,6.9,9.866510692578146,0.0008224017980160182,0.15301282787065432,0.20458843058064352,9.863355947144337,,,,,,,,634080.0,,1,0,0,1,1
1789661151028.0,1.73,0.15343975,0.20368902,9.8632145,0.0,0.00030543236,-0.0007635809,-49.875004,3.3750002,6.9,9.866510692578146,0.0008224017980160182,0.15327603923189986,0.20416584160543821,9.863372170868018,,,,,,,,634080.0,,1,0,0,1,1
1789661151038.0,1.74,0.15343975,0.20368902,9.8632145,0.0,0.00030543236,-0.0007635809,-49.875004,3.3750002,6.9,9.866510692578146,0.0008224017980160182,0.15378515252860975,0.20382311827906674,9.863491947786793,,,,,,,,634080.0,,1,0,0,1,1
1789661151048.0,1.75,0.15343975,0.20368902,9.8632145,0.0,0.00030543236,-0.0007635809,-49.875004,3.3750002,6.9,9.866510692578146,0.0008224017980160182,0.15440987780672516,0.20408599242804593,9.863813978114994,,,,,,,,634080.0,,1,0,0,1,1
1789661151058.0,1.76,0.15643078,0.20548365,9.865608,0.0,0.00030543236,-0.0007635809,-49.875004,3.3750002,6.9,9.86898755339233,0.0008224017980160182,0.15509723698623606,0.20480926864192658,9.8643397735293,,,,,,,,634080.0,,1,0,0,1,1
1789661151068.0,1.77,0.15643078,0.20548365,9.865608,0.0,0.00030543236,-0.0007635809,-49.875004,3.3750002,6.9,9.86898755339233,0.0008224017980160182,0.15590582702465344,0.20541618759766492,9.865086773340602,,,,,,,,634080.0,,1,0,0,1,1
1789661151078.0,1.78,0.15643078,0.20548365,9.865608,0.0,0.00030543236,-0.0007635809,-49.875004,3.3750002,6.9,9.86898755339233,0.0008224017980160182,0.15696636952464532,0.20536478770576552,9.866136100596602,,,,,,,,634080.0,,1,0,0,1,1
1789661151088.0,1.79,0.15643078,0.20548365,9.865608,0.0,0.00030543236,-0.0007635809,-49.875004,3.3750002,6.9,9.86898755339233,0.0008224017980160182,0.15833465526983206,0.20450729523164002,9.867519623706466,,,,,,,,634080.0,,1,0,0,1,1
1789661151098.0,1.8,0.16151553,0.2015953,9.870692,0.0,0.00030543236,-0.00045814854,-49.875004,3.3750002,6.9,9.874071525479106,0.0005506260175829881,0.15984801568141072,0.20314429203321518,9.869063462837294,,,,,,,,634080.0,,1,0,0,1,1
1789661151108.0,1.81,0.16151553,0.2015953,9.870692,0.0,0.00030543236,-0.00045814854,-50.100002,3.825,7.8,9.874071525479106,0.0005506260175829881,0.16115126200607433,0.2018080596492501,9.87038946642417,,,,,,,,634080.0,,1,0,0,1,1
1789661151118.0,1.82,0.16151553,0.2015953,9.870692,0.0,0.00030543236,-0.00045814854,-50.100002,3.825,7.8,9.874071525479106,0.0005506260175829881,0.16189334884100304,0.20098161178953255,9.871109052425599,,,,,,,,634080.0,,1,0,0,1,1
1789661151128.0,1.83,0.16151553,0.2015953,9.870692,0.0,0.00030543236,-0.00045814854,-50.100002,3.825,7.8,9.874071525479106,0.0005506260175829881,0.16192014614603123,0.20093610475971033,9.871047243833626,,,,,,,,634080.0,,1,0,0,1,1
1789661151138.0,1.84,0.16151553,0.2015953,9.870692,0.0,0.00030543236,-0.00045814854,-50.100002,3.825,7.8,9.874071525479106,0.0005506260175829881,0.16132242040233685,0.20169320340602193,9.870336435703592,,,,,,,,634080.0,,1,0,0,1,1
1789661151148.0,1.85,0.16151553,0.2015953,9.870692,0.0,0.00030543236,-0.00045814854,-50.100002,3.825,7.8,9.874071525479106,0.0005506260175829881,0.16034368216348502,0.2030160377168306,9.869337741855034,,,,,,,,634080.0,,1,0,0,1,1
1789661151158.0,1.86,0.1576272,0.20518455,9.866804,0.0,0.00030543236,-0.00045814854,-50.100002,3.825,7.8,9.870195955914681,0.0005506260175829881,0.15922253287332133,0.20441949115682767,9.868424099359984,,,,,,,,634080.0,,1,0,0,1,1
1789661151168.0,1.87,0.1576272,0.20518455,9.866804,0.0,0.00030543236,-0.00045814854,-50.100002,3.825,7.8,9.870195955914681,0.0005506260175829881,0.1580559064323242,0.20529904511082933,9.867728863295532,,,,,,,,634080.0,,1,0,0,1,1
1789661151178.0,1.88,0.1576272,0.20518455,9.866804,0.0,0.00030543236,-0.00045814854,-50.100002,3.825,7.8,9.870195955914681,0.0005506260175829881,0.15678427132828976,0.2052088703646367,9.867055355885599,,,,,,,,634080.0,,1,0,0,1,1
1789661151188.0,1.89,0.15672988,0.20608185,9.869795,0.0,0.00030543236,-0.00045814854,-50.100002,3.825,7.8,9.873190331711895,0.0005506260175829881,0.1553346792663741,0.20413636385576894,9.866082907186986,,,,,,,,634080.0,,1,0,0,1,1
1789661151198.0,1.9,0.15224335,0.200698,9.862617,0.0,0.00030543236,-0.0009162971,-50.100002,3.825,7.8,9.865833558980825,0.000965861947694172,0.1537982907899079,0.2025465596085767,9.864722764246347,,,,,,,,634080.0,,1,0,0,1,1
1789661151208.0,1.91,0.15224335,0.200698,9.862617,0.0,0.00030543236,-0.0009162971,-48.600002,3.9750001,5.8500004,9.865833558980825,0.000965861947694172,0.1524654569877845,0.2011189667045245,9.863283233968108,,,,,,,,634080.0,,1,0,0,1,1
1789661151218.0,1.92,0.15224335,0.200698,9.862617,0.0,0.00030543236,-0.0009162971,-48.600002,3.9750001,5.8500004,9.865833558980825,0.000965861947694172,0.15169254413218453,0.2003538208872258,9.862286754541927,,,,,,,,634080.0,,1,0,0,1,1
1789661151228.0,1.93,0.15224335,0.200698,9.862617,0.0,0.00030543236,-0.0009162971,-48.600002,3.9750001,5.8500004,9.865833558980825,0.000965861947694172,0.15172416290818966,0.2003343397987623,9.862121521381253,,,,,,,,634080.0,,1,0,0,1,1
1789661151238.0,1.94,0.15224335,0.200698,9.862617,0.0,0.00030543236,-0.0009162971,-48.600002,3.9750001,5.8500004,9.865833558980825,0.000965861947694172,0.15257026674161467,0.20078439280984484,9.862801757038925,,,,,,,,634080.0,,1,0,0,1,1
1789661151248.0,1.95,0.15224335,0.200698,9.862617,0.0,0.00030543236,-0.0009162971,-48.600002,3.9750001,5.8500004,9.865833558980825,0.000965861947694172,0.153964001383411,0.20133072096072158,9.86395622895632,,,,,,,,634080.0,,1,0,0,1,1
1789661151258.0,1.96,0.15702899,0.20279172,9.866206,0.0,0.00030543236,-0.0009162971,-48.600002,3.9750001,5.8500004,9.86953916957813,0.000965861947694172,0.15543678368967084,0.20177978346610875,9.865025301664433,,,,,,,,634080.0,,1,0,0,1,1
1789661151268.0,1.97,0.15702899,0.20279172,9.866206,0.0,0.00030543236,-0.0009162971,-48.600002,3.9750001,5.8500004,9.86953916957813,0.000965861947694172,0.15653197801863475,0.20224740833713367,9.865572412241997,,,,,,,,634080.0,,1,0,0,1,1
1789661151278.0,1.98,0.15702899,0.20279172,9.866206,0.0,0.00030543236,-0.0009162971,-48.600002,3.9750001,5.8500004,9.86953916957813,0.000965861947694172,0.15704437546885192,0.2030509077909242,9.865526979528571,,,,,,,,634080.0,,1,0,0,1,1
1789661151288.0,1.99,0.15613168,0.2015953,9.862916,0.0,0.00030543236,-0.0009162971,-48.600002,3.9750001,5.8500004,9.866211521629653,0.000965861947694172,0.15709075737001285,0.20441144862562036,9.865170279648408,,,,,,,,634080.0,,1,0,0,1,1
1789661151298.0,2.0,0.15702899,0.20847467,9.865309,0.0,0.00030543236,0.00030543236,-48.600002,3.9750001,5.8500004,9.868760887629866,0.0004319465858996216,0.1569551614472051,0.20619261372011097,9.864874192402596,,,,,,,,634080.0,,1,0,0,1,1
1789661151308.0,2.01,0.15702899,0.20847467,9.865309,0.0,0.00030543236,0.00030543236,-50.325,3.6750002,7.2000003,9.868760887629866,0.0004319465858996216,0.1568647065811936,0.20791099438699545,9.864833718657875,,,,,,,,634080.0,,1,0,0,1,1
1789661151318.0,2.02,0.15702899,0.20847467,9.865309,0.0,0.00030543236,0.00030543236,-50.325,3.6750002,7.2000003,9.868760887629866,0.0004319465858996216,0.15688392059262576,0.20900794892224397,9.865012395592075,,,,,,,,634080.0,,1,0,0,1,1
1789661151328.0,2.03,0.15702899,0.20847467,9.865309,0.0,0.00030543236,0.00030543236,-50.325,3.6750002,7.2000003,9.868760887629866,0.0004319465858996216,0.15696512529214002,0.20914316676611422,9.865275042624194,,,,,,,,634080.0,,1,0,0,1,1
1789661151338.0,2.04,0.15702899,0.20847467,9.865309,0.0,0.00030543236,0.00030543236,-50.325,3.6750002,7.2000003,9.868760887629866,0.0004319465858996216,0.15705769797584196,0.20832331188005143,9.86552072514942,,,,,,,,634080.0,,1,0,0,1,1
1789661151348.0,2.05,0.15702899,0.20847467,9.865309,0.0,0.00030543236,0.00030543236,-50.325,3.6750002,7.2000003,9.868760887629866,0.0004319465858996216,0.1571730880468766,0.20686577186684155,9.865701685776413,,,,,,,,634080.0,,1,0,0,1,1
1789661151358.0,2.06,0.1576272,0.20368902,9.865907,0.0,0.00030543236,0.00030543236,-50.325,3.6750002,7.2000003,9.86926828512111,0.0004319465858996216,0.15737337007667704,0.2052586372559614,9.865773730466318,,,,,,,,634080.0,,1,0,0,1,1
1789661151368.0,2.07,0.1576272,0.20368902,9.865907,0.0,0.00030543236,0.00030543236,-50.325,3.6750002,7.2000003,9.86926828512111,0.0004319465858996216,0.15771076471587375,0.20395652769310485,9.865677900047235,,,,,,,,634080.0,,1,0,0,1,1
1789661151378.0,2.08,0.1576272,0.20368902,9.865907,0.0,0.00030543236,0.00030543236,-50.325,3.6750002,7.2000003,9.86926828512111,0.0004319465858996216,0.15816757236526455,0.2031951374483115,9.865379320457293,,,,,,,,634080.0,,1,0,0,1,1
1789661151388.0,2.09,0.1591227,0.20309082,9.864112,0.0,0.00030543236,-0.0009162971,-50.325,3.6750002,7.2000003,9.86748556945322,0.000965861947694172,0.15864346351254568,0.20294094698763707,9.864906260919273,,,,,,,,634080.0,,1,0,0,1,1
1789661151398.0,2.1,0.1591227,0.20309082,9.864112,0.0,0.00030543236,-0.0009162971,-50.325,3.6750002,7.2000003,9.86748556945322,0.000965861947694172,0.15900839939421804,0.2029958942152192,9.864346034705244,,,,,,,,634080.0,,1,0,0,1,1
1789661151408.0,2.11,0.1591227,0.20309082,9.864112,0.0,0.00030543236,-0.0009162971,-49.050003,3.7500002,7.7250004,9.86748556945322,0.000965861947694172,0.15918573099459357,0.20314743750312958,9.863829633236222,,,,,,,,634080.0,,1,0,0,1,1
1789661151418.0,2.12,0.1591227,0.20309082,9.864112,0.0,0.00030543236,-0.0009162971,-49.050003,3.7500002,7.7250004,9.86748556945322,0.000965861947694172,0.15919767256809736,0.20325036738950758,9.863545793087384,,,,,,,,634080.0,,1,0,0,1,1
1789661151428.0,2.13,0.1591227,0.20309082,9.864112,0.0,0.00030543236,-0.0009162971,-49.050003,3.7500002,7.7250004,9.86748556945322,0.000965861947694172,0.15913648623981488,0.20322679558366585,9.86373772007711,,,,,,,,634080.0,,1,0,0,1,1
1789661151438.0,2.14,0.1591227,0.20309082,9.864112,0.0,0.00030543236,-0.0009162971,-49.050003,3.7500002,7.7250004,9.86748556945322,0.000965861947694172,0.15908645211479683,0.20304559875171513,9.86459054827375,,,,,,,,634080.0,,1,0,0,1,1
1789661151448.0,2.15,0.1591227,0.20309082,9.864112,0.0,0.00030543236,-0.0009162971,-49.050003,3.7500002,7.7250004,9.86748556945322,0.000965861947694172,0.1590524826911591,0.2027299350382115,9.866032588254386,,,,,,,,634080.0,,1,0,0,1,1
1789661151458.0,2.16,0.1585245,0.20219351,9.869197,0.0,0.00030543236,-0.0009162971,-49.050003,3.7500002,7.7250004,9.872540790363713,0.000965861947694172,0.15894262102163945,0.20237950760228876,9.867640684244147,,,,,,,,634080.0,,1,0,0,1,1
1789661151468.0,2.17,0.1585245,0.20219351,9.869197,0.0,0.00030543236,-0.0009162971,-49.050003,3.7500002,7.7250004,9.872540790363713,0.000965861947694172,0.15862900135616717,0.20215815926551786,9.868819103449551,,,,,,,,634080.0,,1,0,0,1,1
1789661151478.0,2.18,0.1585245,0.20219351,9.869197,0.0,0.00030543236,-0.0009162971,-49.050003,3.7500002,7.7250004,9.872540790363713,0.000965861947694172,0.15807150112997687,0.20222454357936528,9.869168868242326,,,,,,,,634080.0,,1,0,0,1,1
1789661151488.0,2.19,0.1585245,0.20219351,9.869197,0.0,0.00030543236,-0.0009162971,-49.050003,3.7500002,7.7250004,9.872540790363713,0.000965861947694172,0.1574169316321094,0.20264055147835938,9.868748476984619,,,,,,,,634080.0,,1,0,0,1,1
1789661151498.0,2.2,0.15613168,0.20398813,9.867104,0.0,0.00030543236,0.00030543236,-49.050003,3.7500002,7.7250004,9.870447284976326,0.0004319465858996216,0.15694288811004944,0.20331676895550627,9.86800051606446,,,,,,,,634080.0,,1,0,0,1,1
1789661151508.0,2.21,0.15613168,0.20398813,9.867104,0.0,0.00030543236,0.00030543236,-49.500004,4.2000003,7.275,9.870447284976326,0.0004319465858996216,0.15680952918713698,0.20402457041413416,9.86740503121309,,,,,,,,634080.0,,1,0,0,1,1
1789661151518.0,2.22,0.15613168,0.20398813,9.867104,0.0,0.00030543236,0.00030543236,-49.500004,4.2000003,7.275,9.870447284976326,0.0004319465858996216,0.1568004610853699,0.204461434498949,9.867140558646485,,,,,,,,634080.0,,1,0,0,1,1
1789661151528.0,2.23,0.15613168,0.20398813,9.867104,0.0,0.00030543236,0.00030543236,-49.500004,4.2000003,7.275,9.870447284976326,0.0004319465858996216,0.15635526703435304,0.20435269310330073,9.867012131997386,,,,,,,,634080.0,,1,0,0,1,1
1789661151538.0,2.24,0.15613168,0.20398813,9.867104,0.0,0.00030543236,0.00030543236,-49.500004,4.2000003,7.275,9.870447284976326,0.0004319465858996216,0.1550113981422968,0.20358827440115349,9.866682995222881,,,,,,,,634080.0,,1,0,0,1,1
1789661151548.0,2.25,0.15613168,0.20398813,9.867104,0.0,0.00030543236,0.00030543236,-49.500004,4.2000003,7.275,9.870447284976326,0.0004319465858996216,0.15296461137316184,0.2023495707661512,9.86600541874069,,,,,,,,634080.0,,1,0,0,1,1
1789661151558.0,2.26,0.14925231,0.19980069,9.864112,0.0,0.00030543236,0.00030543236,-49.500004,4.2000003,7.275,9.867264165730479,0.0004319465858996216,0.1512030065798012,0.20110254348577677,9.865172232092007,,,,,,,,634080.0,,1,0,0,1,1
1789661151568.0,2.27,0.14925231,0.19980069,9.864112,0.0,0.00030543236,0.00030543236,-49.500004,4.2000003,7.275,9.867264165730479,0.0004319465858996216,0.15092715062531264,0.2003747962057631,9.864568003377475,,,,,,,,634080.0,,1,0,0,1,1
1789661151578.0,2.28,0.14925231,0.19980069,9.864112,0.0,0.00030543236,0.00030543236,-49.500004,4.2000003,7.275,9.867264165730479,0.0004319465858996216,0.15263608660279693,0.2004377733975788,9.86446283317646,,,,,,,,634080.0,,1,0,0,1,1
1789661151588.0,2.29,0.16002001,0.20249261,9.865608,0.0,0.00030543236,0.00030543236,-49.500004,4.2000003,7.275,9.868983274399092,0.0004319465858996216,0.1556827571222754,0.20115299978009385,9.864820273511189,,,,,,,,634080.0,,1,0,0,1,1
1789661151598.0,2.3,0.16002001,0.20249261,9.865608,0.0,0.00030543236,0.00030543236,-49.500004,4.2000003,7.275,9.868983274399092,0.0004319465858996216,0.15872609939931132,0.2021029652837054,9.865359058671197,,,,,,,,634080.0,,1,0,0,1,1
1789661151608.0,2.31,0.16002001,0.20249261,9.865608,0.0,0.00030543236,0.00030543236,-50.025,3.525,7.5750003,9.868983274399092,0.0004319465858996216,0.16065576903043033,0.20285564059802064,9.865768326861502,,,,,,,,634080.0,,1,0,0,1,1
1789661151618.0,2.32,0.16002001,0.20249261,9.865608,0.0,0.00030543236,0.00030543236,-50.025,3.525,7.5750003,9.868983274399092,0.0004319465858996216,0.16117502195865782,0.20313299113945316,9.865880415176695,,,,,,,,634080.0,,1,0,0,1,1
1789661151628.0,2.33,0.16002001,0.20249261,9.865608,0.0,0.00030543236,0.00030543236,-50.025,3.525,7.5750003,9.868983274399092,0.0004319465858996216,0.16067947958540835,0.20283301127475523,9.865707594500057,,,,,,,,634080.0,,1,0,0,1,1
1789661151638.0,2.34,0.16002001,0.20249261,9.865608,0.0,0.00030543236,0.00030543236,-50.025,3.525,7.5750003,9.868983274399092,0.0004319465858996216,0.15975280512114728,0.20202761765837876,9.865384613226453,,,,,,,,634080.0,,1,0,0,1,1
1789661151648.0,2.35,0.16002001,0.20249261,9.865608,0.0,0.00030543236,0.00030543236,-50.025,3.525,7.5750003,9.868983274399092,0.0004319465858996216,0.15878602899204605,0.20100450697344435,9.86508516512451,,,,,,,,634080.0,,1,0,0,1,1
1789661151658.0,2.36,0.15702899,0.19950159,9.864411,0.0,0.00030543236,0.00030543236,-50.025,3.525,7.5750003,9.867677708814469,0.0004319465858996216,0.1579121270996548,0.20024370145310397,9.864931396668773,,,,,,,,634080.0,,1,0,0,1,1
1789661151668.0,2.37,0.15702899,0.19950159,9.864411,0.0,0.00030543236,0.00030543236,-50.025,3.525,7.5750003,9.867677708814469,0.0004319465858996216,0.15712219044660528,0.20019985225241443,9.864908987127876,,,,,,,,634080.0,,1,0,0,1,1
1789661151678.0,2.38,0.15702899,0.19950159,9.864411,0.0,0.00030543236,0.00030543236,-50.025,3.525,7.5750003,9.867677708814469,0.0004319465858996216,0.15638371612095064,0.2009818346866619,9.864853394284609,,,,,,,,634080.0,,1,0,0,1,1
1789661151688.0,2.39,0.15523437,0.20398813,9.866505,0.0,0.00030543236,0.00030543236,-50.025,3.525,7.5750003,9.86983433406231,0.0004319465858996216,0.1556980025448328,0.20222107674867054,9.864569633999944,,,,,,,,634080.0,,1,0,0,1,1
1789661151698.0,2.4,0.15493527,0.20368902,9.8632145,0.0,0.00030543236,0.00030543236,-50.025,3.525,7.5750003,9.866534063579206,0.0004319465858996216,0.15511220820076294,0.20330654378552318,9.864022747674825,,,,,,,,634080.0,,1,0,0,1,1
1789661151708.0,2.41,0.15493527,0.20368902,9.8632145,0.0,0.00030543236,0.00030543236,-49.425003,3.9,7.05,9.866534063579206,0.0004319465858996216,0.15471077570354297,0.2038196047161774,9.86342284696975,,,,,,,,634080.0,,1,0,0,1,1
1789661151718.0,2.42,0.15493527,0.20368902,9.8632145,0.0,0.00030543236,0.00030543236,-49.425003,3.9,7.05,9.866534063579206,0.0004319465858996216,0.15459538345019444,0.20380834948671248,9.86309758439543,,,,,,,,634080.0,,1,0,0,1,1
1789661151728.0,2.43,0.15493527,0.20368902,9.8632145,0.0,0.00030543236,0.00030543236,-49.425003,3.9,7.05,9.866534063579206,0.0004319465858996216,0.1548373047879267,0.20369358034276164,9.863239930831748,,,,,,,,634080.0,,1,0,0,1,1
1789661151738.0,2.44,0.15493527,0.20368902,9.8632145,0.0,0.00030543236,0.00030543236,-49.425003,3.9,7.05,9.866534063579206,0.0004319465858996216,0.15538836676331141,0.20390328998363508,9.863736313360647,,,,,,,,634080.0,,1,0,0,1,1
1789661151748.0,2.45,0.15493527,0.20368902,9.8632145,0.0,0.00030543236,0.00030543236,-49.425003,3.9,7.05,9.866534063579206,0.0004319465858996216,0.15600473301026727,0.2045135451899323,9.864239022923327,,,,,,,,634080.0,,1,0,0,1,1
1789661151758.0,2.46,0.15702899,0.20548365,9.866206,0.0,0.00030543236,0.00030543236,-49.425003,3.9,7.05,9.869594848247507,0.0004319465858996216,0.15629824620445326,0.20515179994171298,9.864494193749575,,,,,,,,634080.0,,1,0,0,1,1
1789661151768.0,2.47,0.15702899,0.20548365,9.866206,0.0,0.00030543236,0.00030543236,-49.425003,3.9,7.05,9.869594848247507,0.0004319465858996216,0.15594787016944123,0.2052459230665477,9.864717137173603,,,,,,,,634080.0,,1,0,0,1,1
1789661151778.0,2.48,0.15702899,0.20548365,9.866206,0.0,0.00030543236,0.00030543236,-49.425003,3.9,7.05,9.869594848247507,0.0004319465858996216,0.15490501786481092,0.20446048148867407,9.865651765372656,,,,,,,,634080.0,,1,0,0,1,1
1789661151788.0,2.49,0.148355,0.20338993,9.861719,0.0,0.00030543236,0.00030543236,-49.425003,3.9,7.05,9.864931743535351,0.0004319465858996216,0.15337483463176232,0.20299325001612614,9.868108343430402,,,,,,,,634080.0,,1,0,0,1,1
1789661151798.0,2.5,0.15164514,0.2000998,9.877572,-0.0010690133,-0.0021380265,0.00030543236,-49.425003,3.9,7.05,9.880762358929076,0.002409820673165186,0.15162613775722042,0.20147153408487348,9.872232070866758,,,,,,,,634080.0,,1,0,0,1,1
1789661151808.0,2.51,0.15164514,0.2000998,9.877572,-0.0010690133,-0.0021380265,0.00030543236,-49.425003,3.9,7.05,9.880762358929076,0.002409820673165186,0.14997046586095117,0.20049432949535215,9.877039296383419,,,,,,,,634080.0,,1,0,0,1,1
1789661151818.0,2.52,0.15164514,0.2000998,9.877572,-0.0010690133,-0.0021380265,0.00030543236,-49.575,3.9750001,8.400001,9.880762358929076,0.002409820673165186,0.14905119500332706,0.2001752092867885,9.880550938098814,,,,,,,,634080.0,,1,0,0,1,1
1789661151828.0,2.53,0.15164514,0.2000998,9.877572,-0.0010690133,-0.0021380265,0.00030543236,-49.575,3.9750001,8.400001,9.880762358929076,0.002409820673165186,0.15000649776569966,0.20006408797767433,9.880513422520979,,,,,,,,634080.0,,1,0,0,1,1
1789661151838.0,2.54,0.15164514,0.2000998,9.877572,-0.0010690133,-0.0021380265,0.00030543236,-49.575,3.9750001,8.400001,9.880762358929076,0.002409820673165186,0.15391691843879532,0.19952496193667538,9.875561322699935,,,,,,,,634080.0,,1,0,0,1,1
1789661151848.0,2.55,0.15164514,0.2000998,9.877572,-0.0010690133,-0.0021380265,0.00030543236,-49.575,3.9750001,8.400001,9.880762358929076,0.002409820673165186,0.1606740491622714,0.19827555635867808,9.866409728212766,,,,,,,,634080.0,,1,0,0,1,1
1789661151858.0,2.56,0.17527425,0.19501504,9.847662,-0.0010690133,-0.0021380265,0.00030543236,-49.575,3.9750001,8.400001,9.851152155701548,0.002409820673165186,0.1683186921693511,0.196656089244132,9.85617659771347,,,,,,,,634080.0,,1,0,0,1,1
1789661151868.0,2.57,0.17527425,0.19501504,9.847662,-0.0010690133,-0.0021380265,0.00030543236,-49.575,3.9750001,8.400001,9.851152155701548,0.002409820673165186,0.17380184242945396,0.195405169141318,9.849090355798817,,,,,,,,634080.0,,1,0,0,1,1
1789661151878.0,2.58,0.17527425,0.19501504,9.847662,-0.0010690133,-0.0021380265,0.00030543236,-49.575,3.9750001,8.400001,9.851152155701548,0.002409820673165186,0.17485040398251003,0.19512323936370213,9.848096525715128,,,,,,,,634080.0,,1,0,0,1,1
1789661151888.0,2.59,0.17527425,0.19501504,9.847662,-0.0010690133,-0.0021380265,0.00030543236,-49.575,3.9750001,8.400001,9.851152155701548,0.002409820673165186,0.1714702087088694,0.19585548055734892,9.853070149634878,,,,,,,,634080.0,,1,0,0,1,1
1789661151898.0,2.6,0.1594218,0.19860429,9.869795,0.0,0.00030543236,0.00030543236,-49.575,3.9750001,8.400001,9.873080183830506,0.0004319465858996216,0.16585370890847856,0.19710564499148997,9.861032727862906,,,,,,,,634080.0,,1,0,0,1,1
1789661151908.0,2.61,0.1594218,0.19860429,9.869795,0.0,0.00030543236,0.00030543236,-49.575,3.9750001,8.400001,9.873080183830506,0.0004319465858996216,0.16082540230791312,0.1982256063414256,9.868159055243877,,,,,,,,634080.0,,1,0,0,1,1
1789661151918.0,2.62,0.1594218,0.19860429,9.869795,0.0,0.00030543236,0.00030543236,-49.425003,4.2000003,7.2000003,9.873080183830506,0.0004319465858996216,0.15811821680125496,0.19884142671612404,9.871977799368567,,,,,,,,634080.0,,1,0,0,1,1
1789661151928.0,2.63,0.1594218,0.19860429,9.869795,0.0,0.00030543236,0.00030543236,-49.425003,4.2000003,7.2000003,9.873080183830506,0.0004319465858996216,0.15773089367750415,0.19899998702260238,9.872245658880896,,,,,,,,634080.0,,1,0,0,1,1
1789661151938.0,2.64,0.1594218,0.19860429,9.869795,0.0,0.00030543236,0.00030543236,-49.425003,4.2000003,7.2000003,9.873080183830506,0.0004319465858996216,0.15855198015023303,0.19899759591573582,9.87028687431973,,,,,,,,634080.0,,1,0,0,1,1
1789661151948.0,2.65,0.1594218,0.19860429,9.869795,0.0,0.00030543236,0.00030543236,-49.425003,4.2000003,7.2000003,9.873080183830506,0.0004319465858996216,0.15943764489241097,0.1991137907442621,9.8677533842707,,,,,,,,634080.0,,1,0,0,1,1
1789661151958.0,2.66,0.15882361,0.200698,9.865009,0.0,0.00030543236,0.00030543236,-49.425003,4.2000003,7.2000003,9.868328490498197,0.0004319465858996216,0.15984561905849462,0.19949033925428059,9.865783677926315,,,,,,,,634080.0,,1,0,0,1,1
1789661151968.0,2.67,0.15882361,0.200698,9.865009,0.0,0.00030543236,0.00030543236,-49.425003,4.2000003,7.2000003,9.868328490498197,0.0004319465858996216,0.15977967177269511,0.20018944276907183,9.86481305144299,,,,,,,,634080.0,,1,0,0,1,1
1789661151978.0,2.68,0.15882361,0.200698,9.865009,0.0,0.00030543236,0.00030543236,-49.425003,4.2000003,7.2000003,9.868328490498197,0.0004319465858996216,0.15941989570693804,0.2012696954112638,9.864758828718124,,,,,,,,634080.0,,1,0,0,1,1
1789661151988.0,2.69,0.16211374,0.2009971,9.864711,0.0,0.00030543236,0.00030543236,-49.425003,4.2000003,7.2000003,9.868090180598584,0.0004319465858996216,0.1588977333024713,0.20274225730697337,9.865278945626482,,,,,,,,634080.0,,1,0,0,1,1
1789661151998.0,2.7,0.15702899,0.20638095,9.866505,0.0,0.00015271618,0.00030543236,-49.425003,4.2000003,7.2000003,9.86991246745625,0.0003414837597440938,0.1583156257061207,0.20446058862232863,9.865977216868812,,,,,,,,634080.0,,1,0,0,1,1
1789661152008.0,2.71,0.15702899,0.20638095,9.866505,0.0,0.00015271618,0.00030543236,-49.425003,4.2000003,7.2000003,9.86991246745625,0.0003414837597440938,0.15779157568723773,0.20608883612462234,9.866534967970729,,,,,,,,634080.0,,1,0,0,1,1
1789661152018.0,2.72,0.15702899,0.20638095,9.866505,0.0,0.00015271618,0.00030543236,-49.350002,3.9,6.675,9.86991246745625,0.0003414837597440938,0.1573746577702096,0.2071821318507968,9.86677189032443,,,,,,,,634080.0,,1,0,0,1,1
1789661152028.0,2.73,0.15702899,0.20638095,9.866505,0.0,0.00015271618,0.00030543236,-49.350002,3.9,6.675,9.86991246745625,0.0003414837597440938,0.15695313781308404,0.20731028607978483,9.86664816556847,,,,,,,,634080.0,,1,0,0,1,1
1789661152038.0,2.74,0.15702899,0.20638095,9.866505,0.0,0.00015271618,0.00030543236,-49.350002,3.9,6.675,9.86991246745625,0.0003414837597440938,0.15633855203084754,0.20621370093134786,9.866233138753556,,,,,,,,634080.0,,1,0,0,1,1
1789661152048.0,2.75,0.15702899,0.20638095,9.866505,0.0,0.00015271618,0.00030543236,-49.350002,3.9,6.675,9.86991246745625,0.0003414837597440938,0.15547619339302346,0.20401610140827398,9.865655927295801,,,,,,,,634080.0,,1,0,0,1,1
1789661152058.0,2.76,0.15284155,0.19980069,9.863813,0.0,0.00015271618,0.00030543236,-49.350002,3.9,6.675,9.8670202064301,0.0003414837597440938,0.15453490098961664,0.20138008947427463,9.865031967148438,,,,,,,,634080.0,,1,0,0,1,1
1789661152068.0,2.77,0.15284155,0.19980069,9.863813,0.0,0.00015271618,0.00030543236,-49.350002,3.9,6.675,9.8670202064301,0.0003414837597440938,0.1537436035140103,0.19937907042609662,9.864389108680792,,,,,,,,634080.0,,1,0,0,1,1
1789661152078.0,2.78,0.15284155,0.19980069,9.863813,0.0,0.00015271618,0.00030543236,-49.350002,3.9,6.675,9.8670202064301,0.0003414837597440938,0.15314885213931595,0.19901291154558878,9.86367490648812,,,,,,,,634080.0,,1,0,0,1,1
1789661152088.0,2.79,0.15493527,0.19680966,9.865907,0.0,0.00015271618,0.00030543236,-49.350002,3.9,6.675,9.869086072823983,0.0003414837597440938,0.15258461652935038,0.20060647234470627,9.862873282063031,,,,,,,,634080.0,,1,0,0,1,1
1789661152098.0,2.8,0.15104693,0.20638095,9.860224,0.0,0.00030543236,-0.00015271618,-49.350002,3.9,6.675,9.863540216461903,0.0003414837597440938,0.15190413881390138,0.20349595762592024,9.862088066099233,,,,,,,,634080.0,,1,0,0,1,1
1789661152108.0,2.81,0.15104693,0.20638095,9.860224,0.0,0.00030543236,-0.00015271618,-49.95,4.5,8.175,9.863540216461903,0.0003414837597440938,0.15121784866390328,0.20626581447212505,9.861422680398478,,,,,,,,634080.0,,1,0,0,1,1
1789661152118.0,2.82,0.15104693,0.20638095,9.860224,0.0,0.00030543236,-0.00015271618,-49.95,4.5,8.175,9.863540216461903,0.0003414837597440938,0.15088182116116486,0.20744289709491257,9.860748333135744,,,,,,,,634080.0,,1,0,0,1,1
1789661152128.0,2.83,0.15104693,0.20638095,9.860224,0.0,0.00030543236,-0.00015271618,-49.95,4.5,8.175,9.863540216461903,0.0003414837597440938,0.15124663827156246,0.20626514183599004,9.859695881676533,,,,,,,,634080.0,,1,0,0,1,1
1789661152138.0,2.84,0.15104693,0.20638095,9.860224,0.0,0.00030543236,-0.00015271618,-49.95,4.5,8.175,9.863540216461903,0.0003414837597440938,0.15238653941429406,0.20311512234584564,9.858034115430033,,,,,,,,634080.0,,1,0,0,1,1
1789661152148.0,2.85,0.15583257,0.19651055,9.855438,0.0,0.00030543236,-0.00015271618,-49.95,4.5,8.175,9.85862862460992,0.0003414837597440938,0.15401622456523664,0.19937723829019857,9.85614028760496,,,,,,,,634080.0,,1,0,0,1,1
1789661152158.0,2.86,0.15583257,0.19651055,9.855438,0.0,0.00030543236,-0.00015271618,-49.95,4.5,8.175,9.85862862460992,0.0003414837597440938,0.15563240988452137,0.19674108771950205,9.855059916650344,,,,,,,,634080.0,,1,0,0,1,1
1789661152168.0,2.87,0.15583257,0.19651055,9.855438,0.0,0.00030543236,-0.00015271618,-49.95,4.5,8.175,9.85862862460992,0.0003414837597440938,0.15674688083708363,0.19630124135094476,9.855960136403755,,,,,,,,634080.0,,1,0,0,1,1
1789661152178.0,2.88,0.15583257,0.19651055,9.855438,0.0,0.00030543236,-0.00015271618,-49.95,4.5,8.175,9.85862862460992,0.0003414837597440938,0.15706061342318925,0.1979960900729626,9.859325674339155,,,,,,,,634080.0,,1,0,0,1,1
1789661152188.0,2.89,0.1594218,0.20219351,9.867104,0.0,0.00030543236,-0.00015271618,-49.95,4.5,8.175,9.87046295128133,0.0003414837597440938,0.15654820010656267,0.2007448845639713,9.864523194331888,,,,,,,,634080.0,,1,0,0,1,1
1789661152198.0,2.9,0.15403795,0.20428723,9.873384,0.0,0.00030543236,0.00030543236,-49.95,4.5,8.175,9.876698465268506,0.0004319465858996216,0.1554797170195483,0.2031762709443271,9.870078143101308,,,,,,,,634080.0,,1,0,0,1,1
1789661152208.0,2.91,0.15403795,0.20428723,9.873384,0.0,0.00030543236,0.00030543236,-49.95,4.5,8.175,9.876698465268506,0.0004319465858996216,0.15434808666835576,0.20445009175533307,9.87438588925284,,,,,,,,634080.0,,1,0,0,1,1
1789661152218.0,2.92,0.15403795,0.20428723,9.873384,0.0,0.00030543236,0.00030543236,-50.325,4.05,8.475,9.876698465268506,0.0004319465858996216,0.15367030771134424,0.20463872490019247,9.876269890995202,,,,,,,,634080.0,,1,0,0,1,1
1789661152228.0,2.93,0.15403795,0.20428723,9.873384,0.0,0.00030543236,0.00030543236,-50.325,4.05,8.475,9.876698465268506,0.0004319465858996216,0.1537400185586883,0.20447050087276594,9.87517598062899,,,,,,,,634080.0,,1,0,0,1,1
1789661152238.0,2.94,0.15403795,0.20428723,9.873384,0.0,0.00030543236,0.00030543236,-50.325,4.05,8.475,9.876698465268506,0.0004319465858996216,0.1544696286213167,0.20468255202429145,9.871310229591355,,,,,,,,634080.0,,1,0,0,1,1
1789661152248.0,2.95,0.15403795,0.20428723,9.873384,0.0,0.00030543236,0.00030543236,-50.325,4.05,8.475,9.876698465268506,0.0004319465858996216,0.155421033439209,0.20546008413430014,9.865882220681078,,,,,,,,634080.0,,1,0,0,1,1
1789661152258.0,2.96,0.15732808,0.20727827,9.855738,0.0,0.00030543236,0.00030543236,-50.325,4.05,8.475,9.859172781253744,0.0004319465858996216,0.1560538128145047,0.20633780465804918,9.860996253051798,,,,,,,,634080.0,,1,0,0,1,1
1789661152268.0,2.97,0.15732808,0.20727827,9.855738,0.0,0.00030543236,0.00030543236,-50.325,4.05,8.475,9.859172781253744,0.0004319465858996216,0.15609545199903196,0.20660526305907137,9.858710602832163,,,,,,,,634080.0,,1,0,0,1,1
1789661152278.0,2.98,0.15732808,0.20727827,9.855738,0.0,0.00030543236,0.00030543236,-50.325,4.05,8.475,9.859172781253744,0.0004319465858996216,0.15576770598452394,0.20589195169148392,9.859713567738371,,,,,,,,634080.0,,1,0,0,1,1
1789661152288.0,2.99,0.15044872,0.20309082,9.869795,0.0,0.00030543236,0.00030543236,-50.325,4.05,8.475,9.873030641122456,0.0004319465858996216,0.15561762714227365,0.20446664603236628,9.8628122043572,,,,,,,,634080.0,,1,0,0,1,1
1789661152298.0,3.0,0.15792629,0.20219351,9.866505,0.0,0.00030543236,0.00030543236,-50.325,4.05,8.475,9.869840112361715,0.0004319465858996216,0.15604547525022208,0.20302140370969454,9.865846389746686,,,,,,,,634080.0,,1,0,0,1,1
1789661152308.0,3.01,0.15792629,0.20219351,9.866505,0.0,0.00030543236,0.00030543236,-50.025,3.7500002,8.325001,9.869840112361715,0.0004319465858996216,0.1569598322727462,0.20214731968508357,9.867276568299165,,,,,,,,634080.0,,1,0,0,1,1
1789661152318.0,3.02,0.15792629,0.20219351,9.866505,0.0,0.00030543236,0.00030543236,-50.025,3.7500002,8.325001,9.869840112361715,0.0004319465858996216,0.15786953617070038,0.20194389689109737,9.867115677184769,,,,,,,,634080.0,,1,0,0,1,1
1789661152328.0,3.03,0.15792629,0.20219351,9.866505,0.0,0.00030543236,0.00030543236,-50.025,3.7500002,8.325001,9.869840112361715,0.0004319465858996216,0.1582740100860306,0.20203855152429426,9.866596546715437,,,,,,,,634080.0,,1,0,0,1,1
1789661152338.0,3.04,0.15792629,0.20219351,9.866505,0.0,0.00030543236,0.00030543236,-50.025,3.7500002,8.325001,9.869840112361715,0.0004319465858996216,0.15798593686086243,0.2019348728016258,9.86703461748994,,,,,,,,634080.0,,1,0,0,1,1
1789661152348.0,3.05,0.15792629,0.20219351,9.866505,0.0,0.00030543236,0.00030543236,-50.025,3.7500002,8.325001,9.869840112361715,0.0004319465858996216,0.15718228438915025,0.20138704103648175,9.868801548060462,,,,,,,,634080.0,,1,0,0,1,1
1789661152358.0,3.06,0.15523437,0.19950159,9.873085,0.0,0.00030543236,0.00030543236,-50.025,3.7500002,8.325001,9.876320469246977,0.0004319465858996216,0.15622855182870615,0.2005368502445873,9.871089241676763,,,,,,,,634080.0,,1,0,0,1,1
1789661152368.0,3.07,0.15523437,0.19950159,9.873085,0.0,0.00030543236,0.00030543236,-50.025,3.7500002,8.325001,9.876320469246977,0.0004319465858996216,0.1554351949768726,0.19976167040415965,9.872564908037697,,,,,,,,634080.0,,1,0,0,1,1
1789661152378.0,3.08,0.15523437,0.19950159,9.873085,0.0,0.00030543236,0.00030543236,-50.025,3.7500002,8.325001,9.876320469246977,0.0004319465858996216,0.15490565844914825,0.19939752132727953,9.872414908186036,,,,,,,,634080.0,,1,0,0,1,1
1789661152388.0,3.09,0.15523437,0.19950159,9.873085,0.0,0.00030543236,0.00030543236,-50.025,3.7500002,8.325001,9.876320469246977,0.0004319465858996216,0.15455565022695045,0.19955974201070517,9.870980541389875,,,,,,,,634080.0,,1,0,0,1,1
1789661152398.0,3.1,0.15373886,0.2009971,9.867104,0.0010690133,-0.0007635809,-0.0007635809,-50.025,3.7500002,8.325001,9.87034836356339,0.0015195068335701917,0.15424952255926566,0.20014817338028545,9.86944924731104,,,,,,,,634080.0,,1,0,0,1,1
1789661152408.0,3.11,0.15373886,0.2009971,9.867104,0.0010690133,-0.0007635809,-0.0007635809,-50.025,3.7500002,8.325001,9.87034836356339,0.0015195068335701917,0.15392428755586246,0.20094057120309555,9.86877136988495,,,,,,,,634080.0,,1,0,0,1,1
1789661152418.0,3.12,0.15373886,0.2009971,9.867104,0.0010690133,-0.0007635809,-0.0007635809,-50.100002,3.6750002,7.65,9.87034836356339,0.0015195068335701917,0.15362702346697263,0.2016360361726762,9.868655431988083,,,,,,,,634080.0,,1,0,0,1,1
1789661152428.0,3.13,0.15373886,0.2009971,9.867104,0.0010690133,-0.0007635809,-0.0007635809,-50.100002,3.6750002,7.65,9.87034836356339,0.0015195068335701917,0.15348430978595493,0.20184726185790147,9.867595476517069,,,,,,,,634080.0,,1,0,0,1,1
1789661152438.0,3.14,0.15373886,0.2009971,9.867104,0.0010690133,-0.0007635809,-0.0007635809,-50.100002,3.6750002,7.65,9.87034836356339,0.0015195068335701917,0.15363935792052041,0.20119595526468007,9.864160810050164,,,,,,,,634080.0,,1,0,0,1,1
1789661152448.0,3.15,0.15373886,0.2009971,9.867104,0.0010690133,-0.0007635809,-0.0007635809,-50.100002,3.6750002,7.65,9.87034836356339,0.0015195068335701917,0.15416351001564696,0.19962325999706199,9.858634279521697,,,,,,,,634080.0,,1,0,0,1,1
1789661152458.0,3.16,0.15523437,0.19830517,9.847662,0.0010690133,-0.0007635809,-0.0007635809,-50.100002,3.6750002,7.65,9.850881661877885,0.0015195068335701917,0.15496159375404653,0.1977554065257069,9.853479618982158,,,,,,,,634080.0,,1,0,0,1,1
1789661152468.0,3.17,0.15523437,0.19830517,9.847662,0.0010690133,-0.0007635809,-0.0007635809,-50.100002,3.6750002,7.65,9.850881661877885,0.0015195068335701917,0.15573987180957266,0.19692013276063494,9.85187519110719,,,,,,,,634080.0,,1,0,0,1,1
1789661152478.0,3.18,0.15523437,0.19830517,9.847662,0.0010690133,-0.0007635809,-0.0007635809,-50.100002,3.6750002,7.65,9.850881661877885,0.0015195068335701917,0.15611120208150184,0.198523318732851,9.85532053408106,,,,,,,,634080.0,,1,0,0,1,1
1789661152488.0,3.19,0.15882361,0.19501504,9.873384,0.0010690133,-0.0007635809,-0.0007635809,-50.100002,3.6750002,7.65,9.876586830295961,0.0015195068335701917,0.15582475199305343,0.2030221975550507,9.86239343954966,,,,,,,,634080.0,,1,0,0,1,1
1789661152498.0,3.2,0.15343975,0.21565314,9.872188,0.0,0.00030543236,0.00030543236,-50.100002,3.6750002,7.65,9.875735210150983,0.0004319465858996216,0.1549706382256258,0.20925938562931504,9.869753934779961,,,,,,,,634080.0,,1,0,0,1,1
1789661152508.0,3.21,0.15343975,0.21565314,9.872188,0.0,0.00030543236,0.00030543236,-49.350002,3.6000001,7.275,9.875735210150983,0.0004319465858996216,0.15396960997009151,0.21482804859100507,9.874381996759057,,,,,,,,634080.0,,1,0,0,1,1
1789661152518.0,3.22,0.15343975,0.21565314,9.872188,0.0,0.00030543236,0.00030543236,-49.350002,3.6000001,7.275,9.875735210150983,0.0004319465858996216,0.1533196464070684,0.21733905320258798,9.875122309202956,,,,,,,,634080.0,,1,0,0,1,1
1789661152528.0,3.23,0.15343975,0.21565314,9.872188,0.0,0.00030543236,0.00030543236,-49.350002,3.6000001,7.275,9.875735210150983,0.0004319465858996216,0.15329376530731914,0.2157314795093317,9.872678446115176,,,,,,,,634080.0,,1,0,0,1,1
1789661152538.0,3.24,0.15343975,0.21565314,9.872188,0.0,0.00030543236,0.00030543236,-49.350002,3.6000001,7.275,9.875735210150983,0.0004319465858996216,0.15381484358471545,0.21080378354422152,9.868681883028827,,,,,,,,634080.0,,1,0,0,1,1
1789661152548.0,3.25,0.15523437,0.19920248,9.862318,0.0,0.00030543236,0.00030543236,-49.350002,3.6000001,7.275,9.865550956271598,0.0004319465858996216,0.15456113976115682,0.2047239966684993,9.864790613670484,,,,,,,,634080.0,,1,0,0,1,1
1789661152558.0,3.26,0.15523437,0.19920248,9.862318,0.0,0.00030543236,0.00030543236,-49.350002,3.6000001,7.275,9.865550956271598,0.0004319465858996216,0.15518400296084744,0.19986564749297764,9.862187080748985,,,,,,,,634080.0,,1,0,0,1,1
1789661152568.0,3.27,0.15523437,0.19920248,9.862318,0.0,0.00030543236,0.00030543236,-49.350002,3.6000001,7.275,9.865550956271598,0.0004319465858996216,0.15547775497258914,0.19767739212373237,9.861388415276933,,,,,,,,634080.0,,1,0,0,1,1
1789661152578.0,3.28,0.15523437,0.19920248,9.862318,0.0,0.00030543236,0.00030543236,-49.350002,3.6000001,7.275,9.865550956271598,0.0004319465858996216,0.15541665929967424,0.19823189501666733,9.86225193594283,,,,,,,,634080.0,,1,0,0,1,1
1789661152588.0,3.29,0.15523437,0.19920248,9.862318,0.0,0.00030543236,0.00030543236,-49.350002,3.6000001,7.275,9.865550956271598,0.0004319465858996216,0.15508897148549808,0.2005642208030621,9.864131244463554,,,,,,,,634080.0,,1,0,0,1,1
1789661152598.0,3.3,0.15433706,0.20518455,9.867702,0.0,0.00030543236,-0.0007635809,-49.350002,3.6000001,7.275,9.871041656707368,0.0008224017980160182,0.15462237412358976,0.20337096115507913,9.86615170986972,,,,,,,,634080.0,,1,0,0,1,1
1789661152608.0,3.31,0.15433706,0.20518455,9.867702,0.0,0.00030543236,-0.0007635809,-49.800003,3.9750001,7.5000005,9.871041656707368,0.0008224017980160182,0.1541657127222486,0.20556900376813544,9.867556889568355,,,,,,,,634080.0,,1,0,0,1,1
1789661152618.0,3.32,0.15433706,0.20518455,9.867702,0.0,0.00030543236,-0.0007635809,-49.800003,3.9750001,7.5000005,9.871041656707368,0.0008224017980160182,0.15391009794696164,0.20651074961648472,9.868017397339731,,,,,,,,634080.0,,1,0,0,1,1
1789661152628.0,3.33,0.15433706,0.20518455,9.867702,0.0,0.00030543236,-0.0007635809,-49.800003,3.9750001,7.5000005,9.871041656707368,0.0008224017980160182,0.15407216454201172,0.2059719721553605,9.867746877570271,,,,,,,,634080.0,,1,0,0,1,1
1789661152638.0,3.34,0.15433706,0.20518455,9.867702,0.0,0.00030543236,-0.0007635809,-49.800003,3.9750001,7.5000005,9.871041656707368,0.0008224017980160182,0.15478223793469292,0.204144288736355,9.86734103580166,,,,,,,,634080.0,,1,0,0,1,1
1789661152648.0,3.35,0.15433706,0.20518455,9.867702,0.0,0.00030543236,-0.0007635809,-49.800003,3.9750001,7.5000005,9.871041656707368,0.0008224017980160182,0.1559317181446577,0.20168846767562776,9.867400734720139,,,,,,,,634080.0,,1,0,0,1,1
1789661152658.0,3.36,0.1585245,0.19710876,9.867402,0.0,0.00030543236,-0.0007635809,-49.800003,3.9750001,7.5000005,9.87064355095315,0.0008224017980160182,0.1571406140628186,0.19961852457192047,9.868110609991358,,,,,,,,634080.0,,1,0,0,1,1
1789661152668.0,3.37,0.1585245,0.19710876,9.867402,0.0,0.00030543236,-0.0007635809,-49.800003,3.9750001,7.5000005,9.87064355095315,0.0008224017980160182,0.1579479239955974,0.19881995657445087,9.869013789774261,,,,,,,,634080.0,,1,0,0,1,1
1789661152678.0,3.38,0.1585245,0.19710876,9.867402,0.0,0.00030543236,-0.0007635809,-49.800003,3.9750001,7.5000005,9.87064355095315,0.0008224017980160182,0.15810582855452077,0.19945881375741023,9.86921854680172,,,,,,,,634080.0,,1,0,0,1,1
1789661152688.0,3.39,0.15643078,0.20608185,9.876974,0.0,0.00030543236,-0.0007635809,-49.800003,3.9750001,7.5000005,9.880362124664604,0.0008224017980160182,0.15772304437327275,0.20084682345616,9.868033141537893,,,,,,,,634080.0,,1,0,0,1,1
1789661152698.0,3.4,0.15702899,0.20129621,9.860822,0.0,0.00030543236,-0.00015271618,-49.800003,3.9750001,7.5000005,9.86412635683185,0.0003414837597440938,0.1571444679824167,0.2019697036229347,9.865581482392908,,,,,,,,634080.0,,1,0,0,1,1
1789661152708.0,3.41,0.15702899,0.20129621,9.860822,0.0,0.00030543236,-0.00015271618,-49.725002,4.2000003,7.8750005,9.86412635683185,0.0003414837597440938,0.15671121434563257,0.2022214521200689,9.862803817071516,,,,,,,,634080.0,,1,0,0,1,1
1789661152718.0,3.42,0.15702899,0.20129621,9.860822,0.0,0.00030543236,-0.00015271618,-49.725002,4.2000003,7.8750005,9.86412635683185,0.0003414837597440938,0.15661103292488052,0.2017278310667049,9.86077873876541,,,,,,,,634080.0,,1,0,0,1,1
1789661152728.0,3.43,0.15702899,0.20129621,9.860822,0.0,0.00030543236,-0.00015271618,-49.725002,4.2000003,7.8750005,9.86412635683185,0.0003414837597440938,0.15686800990210956,0.2011122755717475,9.859996868407052,,,,,,,,634080.0,,1,0,0,1,1
1789661152738.0,3.44,0.15702899,0.20129621,9.860822,0.0,0.00030543236,-0.00015271618,-49.725002,4.2000003,7.8750005,9.86412635683185,0.0003414837597440938,0.15737377845881412,0.20102021042129292,9.860218808689147,,,,,,,,634080.0,,1,0,0,1,1
1789661152748.0,3.45,0.15702899,0.20129621,9.860822,0.0,0.00030543236,-0.00015271618,-49.725002,4.2000003,7.8750005,9.86412635683185,0.0003414837597440938,0.1578979198253168,0.20174648550505947,9.860910357660467,,,,,,,,634080.0,,1,0,0,1,1
1789661152758.0,3.46,0.1585245,0.20368902,9.862617,0.0,0.00030543236,-0.00015271618,-49.725002,4.2000003,7.8750005,9.865993782820755,0.0003414837597440938,0.15813651770635015,0.203100127154737,9.861756171552909,,,,,,,,634080.0,,1,0,0,1,1
1789661152768.0,3.47,0.1585245,0.20368902,9.862617,0.0,0.00030543236,-0.00015271618,-49.725002,4.2000003,7.8750005,9.865993782820755,0.0003414837597440938,0.15786455864667392,0.2045015545334662,9.862814620412719,,,,,,,,634080.0,,1,0,0,1,1
1789661152778.0,3.48,0.1585245,0.20368902,9.862617,0.0,0.00030543236,-0.00015271618,-49.725002,4.2000003,7.8750005,9.865993782820755,0.0003414837597440938,0.15711206684199985,0.20527401029989817,9.864262524617304,,,,,,,,634080.0,,1,0,0,1,1
1789661152788.0,3.49,0.15373886,0.20997019,9.865309,0.0,0.00030543236,-0.00015271618,-49.725002,4.2000003,7.8750005,9.868740790153714,0.0003414837597440938,0.15617982867157937,0.20503277543881374,9.866032108097661,,,,,,,,634080.0,,1,0,0,1,1
1789661152798.0,3.5,0.15553348,0.2015953,9.869496,0.0,0.00030543236,0.00030543236,-49.725002,4.2000003,7.8750005,9.8727798832142,0.0004319465858996216,0.1554360577446384,0.20394871660278574,9.867722868973786,,,,,,,,634080.0,,1,0,0,1,1
1789661152808.0,3.51,0.15553348,0.2015953,9.869496,0.0,0.00030543236,0.00030543236,-49.725002,3.7500002,6.8250003,9.8727798832142,0.0004319465858996216,0.15507603748918575,0.2026422654223137,9.868898207630302,,,,,,,,634080.0,,1,0,0,1,1
1789661152818.0,3.52,0.15553348,0.2015953,9.869496,0.0,0.00030543236,0.00030543236,-49.725002,3.7500002,6.8250003,9.8727798832142,0.0004319465858996216,0.15507016578256608,0.20173104627035154,9.869475531133512,,,,,,,,634080.0,,1,0,0,1,1
1789661152828.0,3.53,0.15553348,0.2015953,9.869496,0.0,0.00030543236,0.00030543236,-49.725002,3.7500002,6.8250003,9.8727798832142,0.0004319465858996216,0.15530387177041652,0.2014013104333707,9.869802206418326,,,,,,,,634080.0,,1,0,0,1,1
1789661152838.0,3.54,0.15553348,0.2015953,9.869496,0.0,0.00030543236,0.00030543236,-49.725002,3.7500002,6.8250003,9.8727798832142,0.0004319465858996216,0.15571112655212835,0.20137698803825704,9.87031687249653,,,,,,,,634080.0,,1,0,0,1,1
1789661152848.0,3.55,0.15553348,0.2015953,9.869496,0.0,0.00030543236,0.00030543236,-49.725002,3.7500002,6.8250003,9.8727798832142,0.0004319465858996216,0.15625469949435447,0.20129471266294433,9.871113200571848,,,,,,,,634080.0,,1,0,0,1,1
1789661152858.0,3.56,0.15702899,0.20189442,9.873384,0.0,0.00030543236,0.00030543236,-49.725002,3.7500002,6.8250003,9.876696364269964,0.0004319465858996216,0.1568107112145276,0.20114798003348303,9.871839493837099,,,,,,,,634080.0,,1,0,0,1,1
1789661152868.0,3.57,0.15702899,0.20189442,9.873384,0.0,0.00030543236,0.00030543236,-49.725002,3.7500002,6.8250003,9.876696364269964,0.0004319465858996216,0.15712710935393973,0.20141755072320688,9.872060156589377,,,,,,,,634080.0,,1,0,0,1,1
1789661152878.0,3.58,0.15702899,0.20189442,9.873384,0.0,0.00030543236,0.00030543236,-49.725002,3.7500002,6.8250003,9.876696364269964,0.0004319465858996216,0.15694471899643117,0.2027428649406872,9.871739142281783,,,,,,,,634080.0,,1,0,0,1,1
1789661152888.0,3.59,0.1576272,0.2015953,9.867104,0.0,0.00030543236,0.00030543236,-49.725002,3.7500002,6.8250003,9.870421893008318,0.0004319465858996216,0.15619571675985722,0.20535797086394433,9.871348712202968,,,,,,,,634080.0,,1,0,0,1,1
1789661152898.0,3.6,0.15373886,0.21266212,9.8727865,0.0,-0.0009162971,0.00030543236,-49.725002,3.7500002,6.8250003,9.876273289502436,0.000965861947694172,0.15509976469621573,0.20875789040697373,9.871468854077788,,,,,,,,634080.0,,1,0,0,1,1
1789661152908.0,3.61,0.15373886,0.21266212,9.8727865,0.0,-0.0009162971,0.00030543236,-50.025,3.7500002,7.425,9.876273289502436,0.000965861947694172,0.15405783071369716,0.2119008290380442,9.87224853559367,,,,,,,,634080.0,,1,0,0,1,1
1789661152918.0,3.62,0.15373886,0.21266212,9.8727865,0.0,-0.0009162971,0.00030543236,-50.025,3.7500002,7.425,9.876273289502436,0.000965861947694172,0.15342719067290336,0.2137720315499376,9.873199202391204,,,,,,,,634080.0,,1,0,0,1,1
1789661152928.0,3.63,0.15373886,0.21266212,9.8727865,0.0,-0.0009162971,0.00030543236,-50.025,3.7500002,7.425,9.876273289502436,0.000965861947694172,0.15335621081847042,0.2138561747608657,9.873462312149778,,,,,,,,634080.0,,1,0,0,1,1
1789661152938.0,3.64,0.15373886,0.21266212,9.8727865,0.0,-0.0009162971,0.00030543236,-50.025,3.7500002,7.425,9.876273289502436,0.000965861947694172,0.15376932257278086,0.21227317150675093,9.872357957473804,,,,,,,,634080.0,,1,0,0,1,1
1789661152948.0,3.65,0.15373886,0.21266212,9.8727865,0.0,-0.0009162971,0.00030543236,-50.025,3.7500002,7.425,9.876273289502436,0.000965861947694172,0.15445326621463434,0.20965386134075278,9.8698915491805,,,,,,,,634080.0,,1,0,0,1,1
1789661152958.0,3.66,0.15583257,0.20398813,9.864411,0.0,-0.0009162971,0.00030543236,-50.025,3.7500002,7.425,9.867750469279953,0.000965861947694172,0.15516349183364944,0.20687074129360603,9.866898456927768,,,,,,,,634080.0,,1,0,0,1,1
1789661152968.0,3.67,0.15583257,0.20398813,9.864411,0.0,-0.0009162971,0.00030543236,-50.025,3.7500002,7.425,9.867750469279953,0.000965861947694172,0.1557132836115183,0.20467218235651966,9.86466932073218,,,,,,,,634080.0,,1,0,0,1,1
1789661152978.0,3.68,0.15583257,0.20398813,9.864411,0.0,-0.0009162971,0.00030543236,-50.025,3.7500002,7.425,9.867750469279953,0.000965861947694172,0.15602452687128798,0.203369301740894,9.864247561832657,,,,,,,,634080.0,,1,0,0,1,1
1789661152988.0,3.69,0.15583257,0.20398813,9.864411,0.0,-0.0009162971,0.00030543236,-50.025,3.7500002,7.425,9.867750469279953,0.000965861947694172,0.1561197631445673,0.20279901687009527,9.865855428040847,,,,,,,,634080.0,,1,0,0,1,1
1789661152998.0,3.7,0.15613168,0.20219351,9.87159,0.0,0.00030543236,0.00030543236,-50.025,3.7500002,7.425,9.87489485741928,0.0004319465858996216,0.15607340469810652,0.20258261549637266,9.868793729199608,,,,,,,,634080.0,,1,0,0,1,1
1789661153008.0,3.71,0.15613168,0.20219351,9.87159,0.0,0.00030543236,0.00030543236,-50.175003,3.825,7.5750003,9.87489485741928,0.0004319465858996216,0.15597534839285457,0.202433129536605,9.87178479415196,,,,,,,,634080.0,,1,0,0,1,1
1789661153018.0,3.72,0.15613168,0.20219351,9.87159,0.0,0.00030543236,0.00030543236,-50.175003,3.825,7.5750003,9.87489485741928,0.0004319465858996216,0.15592948860366693,0.20227592543194867,9.873477759363855,,,,,,,,634080.0,,1,0,0,1,1
1789661153028.0,3.73,0.15613168,0.20219351,9.87159,0.0,0.00030543236,0.00030543236,-50.175003,3.825,7.5750003,9.87489485741928,0.0004319465858996216,0.1560481502571094,0.20217201734841111,9.872919388845215,,,,,,,,634080.0,,1,0,0,1,1
1789661153038.0,3.74,0.15613168,0.20219351,9.87159,0.0,0.00030543236,0.00030543236,-50.175003,3.825,7.5750003,9.87489485741928,0.0004319465858996216,0.15639920040446767,0.20218253144192208,9.869984776687453,,,,,,,,634080.0,,1,0,0,1,1
1789661153048.0,3.75,0.15613168,0.20219351,9.87159,0.0,0.00030543236,0.00030543236,-50.175003,3.825,7.5750003,9.87489485741928,0.0004319465858996216,0.15693287010424645,0.2022899280505632,9.865668639826058,,,,,,,,634080.0,,1,0,0,1,1
1789661153058.0,3.76,0.1582254,0.20249261,9.857532,0.0,0.00030543236,0.00030543236,-50.175003,3.825,7.5750003,9.860881079565546,0.0004319465858996216,0.1574769926322562,0.20240471395867793,9.861853535251418,,,,,,,,634080.0,,1,0,0,1,1
1789661153068.0,3.77,0.1582254,0.20249261,9.857532,0.0,0.00030543236,0.00030543236,-50.175003,3.825,7.5750003,9.860881079565546,0.0004319465858996216,0.1578470124297162,0.20242704729768737,9.860330424379317,,,,,,,,634080.0,,1,0,0,1,1
1789661153078.0,3.78,0.1582254,0.20249261,9.857532,0.0,0.00030543236,0.00030543236,-50.175003,3.825,7.5750003,9.860881079565546,0.0004319465858996216,0.15799115377410108,0.20231049897660636,9.861621184276967,,,,,,,,634080.0,,1,0,0,1,1
1789661153088.0,3.79,0.15702899,0.20189442,9.8727865,0.0,0.00030543236,0.00030543236,-50.175003,3.825,7.5750003,9.876099064666667,0.0004319465858996216,0.15802948001782283,0.2020824810312596,9.864638479264642,,,,,,,,634080.0,,1,0,0,1,1
1789661153098.0,3.8,0.1585245,0.2015953,9.867702,0.0,-0.0006108647,0.00030543236,-50.175003,3.825,7.5750003,9.871034061479392,0.0006829675015996439,0.1581411091554477,0.20181309704885853,9.86756254258448,,,,,,,,634080.0,,1,0,0,1,1
1789661153108.0,3.81,0.1585245,0.2015953,9.867702,0.0,-0.0006108647,0.00030543236,-49.800003,4.05,8.325001,9.871034061479392,0.0006829675015996439,0.15840014685026096,0.2015702178143256,9.869125363966786,,,,,,,,634080.0,,1,0,0,1,1
1789661153118.0,3.82,0.1585245,0.2015953,9.867702,0.0,-0.0006108647,0.00030543236,-49.800003,4.05,8.325001,9.871034061479392,0.0006829675015996439,0.15869450426260137,0.20140712179873385,9.869185420143648,,,,,,,,634080.0,,1,0,0,1,1
1789661153128.0,3.83,0.1585245,0.2015953,9.867702,0.0,-0.0006108647,0.00030543236,-49.800003,4.05,8.325001,9.871034061479392,0.0006829675015996439,0.15878090438643086,0.20138225158809347,9.868338370214177,,,,,,,,634080.0,,1,0,0,1,1
1789661153138.0,3.84,0.1585245,0.2015953,9.867702,0.0,-0.0006108647,0.00030543236,-49.800003,4.05,8.325001,9.871034061479392,0.0006829675015996439,0.15844477693949896,0.2015577126849578,9.86721315676862,,,,,,,,634080.0,,1,0,0,1,1
1789661153148.0,3.85,0.1585245,0.2015953,9.867702,0.0,-0.0006108647,0.00030543236,-49.800003,4.05,8.325001,9.871034061479392,0.0006829675015996439,0.15768463982861744,0.20193350644557034,9.86612749487979,,,,,,,,634080.0,,1,0,0,1,1
1789661153158.0,3.86,0.15643078,0.20219351,9.864411,0.0,-0.0006108647,0.00030543236,-49.800003,4.05,8.325001,9.8677229988148,0.0006829675015996439,0.15680534308807736,0.20235296382635887,9.86519214880955,,,,,,,,634080.0,,1,0,0,1,1
1789661153168.0,3.87,0.15643078,0.20219351,9.864411,0.0,-0.0006108647,0.00030543236,-49.800003,4.05,8.325001,9.8677229988148,0.0006829675015996439,0.15631897856404803,0.2024843152290784,9.86453038934583,,,,,,,,634080.0,,1,0,0,1,1
1789661153178.0,3.88,0.15643078,0.20219351,9.864411,0.0,-0.0006108647,0.00030543236,-49.800003,4.05,8.325001,9.8677229988148,0.0006829675015996439,0.1566660277283525,0.2019575236544348,9.864330018303805,,,,,,,,634080.0,,1,0,0,1,1
1789661153188.0,3.89,0.15643078,0.20219351,9.864411,0.0,-0.0006108647,0.00030543236,-49.800003,4.05,8.325001,9.8677229988148,0.0006829675015996439,0.1579220562742732,0.2006097897167375,9.86471671932871,,,,,,,,634080.0,,1,0,0,1,1
1789661153198.0,3.9,0.16151553,0.19680966,9.866206,-0.0007635809,-0.0006108647,0.00030543236,-49.800003,4.05,8.325001,9.869490470289563,0.0010244512673065857,0.15970242151851513,0.1986748904080789,9.865593556321954,,,,,,,,634080.0,,1,0,0,1,1
1789661153208.0,3.91,0.16151553,0.19680966,9.866206,-0.0007635809,-0.0006108647,0.00030543236,-50.100002,3.7500002,7.1250005,9.869490470289563,0.0010244512673065857,0.1613434240682412,0.1967716553029828,9.86657221145684,,,,,,,,634080.0,,1,0,0,1,1
1789661153218.0,3.92,0.16151553,0.19680966,9.866206,-0.0007635809,-0.0006108647,0.00030543236,-50.100002,3.7500002,7.1250005,9.869490470289563,0.0010244512673065857,0.16222946857675774,0.19568766228814535,9.86705995447429,,,,,,,,634080.0,,1,0,0,1,1
1789661153228.0,3.93,0.16151553,0.19680966,9.866206,-0.0007635809,-0.0006108647,0.00030543236,-50.100002,3.7500002,7.1250005,9.869490470289563,0.0010244512673065857,0.16206087239153555,0.1960481263052572,9.866530011852927,,,,,,,,634080.0,,1,0,0,1,1
1789661153238.0,3.94,0.16151553,0.19680966,9.866206,-0.0007635809,-0.0006108647,0.00030543236,-50.100002,3.7500002,7.1250005,9.869490470289563,0.0010244512673065857,0.16096225123195657,0.19796325633482914,9.86491470368249,,,,,,,,634080.0,,1,0,0,1,1
1789661153248.0,3.95,0.16151553,0.19680966,9.866206,-0.0007635809,-0.0006108647,0.00030543236,-50.100002,3.7500002,7.1250005,9.869490470289563,0.0010244512673065857,0.15942825942307154,0.20081580990803344,9.862867217327391,,,,,,,,634080.0,,1,0,0,1,1
1789661153258.0,3.96,0.15613168,0.20697916,9.859028,-0.0007635809,-0.0006108647,0.00030543236,-50.100002,3.7500002,7.1250005,9.862436340933103,0.0010244512673065857,0.1580941590675092,0.2034558171002038,9.861532115096054,,,,,,,,634080.0,,1,0,0,1,1
1789661153268.0,3.97,0.15613168,0.20697916,9.859028,-0.0007635809,-0.0006108647,0.00030543236,-50.100002,3.7500002,7.1250005,9.862436340933103,0.0010244512673065857,0.15737394758188938,0.20487583807211976,9.861768419844413,,,,,,,,634080.0,,1,0,0,1,1
1789661153278.0,3.98,0.15613168,0.20697916,9.859028,-0.0007635809,-0.0006108647,0.00030543236,-50.100002,3.7500002,7.1250005,9.862436340933103,0.0010244512673065857,0.15720102704803043,0.20491744851250926,9.863389627149903,,,,,,,,634080.0,,1,0,0,1,1
1789661153288.0,3.99,0.16181463,0.19770697,9.875478,-0.0007635809,-0.0006108647,0.00030543236,-50.100002,3.7500002,7.1250005,9.878782199692054,0.0010244512673065857,0.1571414678297809,0.20433871652181412,9.865203848964391,,,,,,,,634080.0,,1,0,0,1,1
1789661153298.0,4.0,0.15523437,0.20578274,9.863514,0.0,-0.0009162971,0.00030543236,-50.100002,3.7500002,7.1250005,9.866881608386066,0.000965861947694172,0.15681477091695367,0.20412358183543164,9.865949339391788,,,,,,,,634080.0,,1,0,0,1,1
1789661153308.0,4.01,0.15523437,0.20578274,9.863514,0.0,-0.0009162971,0.00030543236,-50.025,4.125,7.8750005,9.866881608386066,0.000965861947694172,0.1562064027184864,0.2046774527553053,9.865283038234974,,,,,,,,634080.0,,1,0,0,1,1
1789661153318.0,4.02,0.15523437,0.20578274,9.863514,0.0,-0.0009162971,0.00030543236,-50.025,4.125,7.8750005,9.866881608386066,0.000965861947694172,0.15557996275425665,0.20560627846137966,9.863942024024492,,,,,,,,634080.0,,1,0,0,1,1
1789661153328.0,4.03,0.15523437,0.20578274,9.863514,0.0,-0.0009162971,0.00030543236,-50.025,4.125,7.8750005,9.866881608386066,0.000965861947694172,0.15515312259089253,0.20613683977418393,9.863072802414441,,,,,,,,634080.0,,1,0,0,1,1
1789661153338.0,4.04,0.15523437,0.20578274,9.863514,0.0,-0.0009162971,0.00030543236,-50.025,4.125,7.8750005,9.866881608386066,0.000965861947694172,0.1549108525258674,0.20572223315906135,9.863408913013112,,,,,,,,634080.0,,1,0,0,1,1
1789661153348.0,4.05,0.15523437,0.20578274,9.863514,0.0,-0.0009162971,0.00030543236,-50.025,4.125,7.8750005,9.866881608386066,0.000965861947694172,0.15470479205538973,0.20439935310074142,9.864876005161419,,,,,,,,634080.0,,1,0,0,1,1
1789661153358.0,4.06,0.15433706,0.20129621,9.8682995,0.0,-0.0009162971,0.00030543236,-50.025,4.125,7.8750005,9.871558899887598,0.000965861947694172,0.1544748304522234,0.20274318719166706,9.866744356306432,,,,,,,,634080.0,,1,0,0,1,1
1789661153368.0,4.07,0.15433706,0.20129621,9.8682995,0.0,-0.0009162971,0.00030543236,-50.025,4.125,7.8750005,9.871558899887598,0.000965861947694172,0.15435162470548192,0.2015036194822595,9.868124166755146,,,,,,,,634080.0,,1,0,0,1,1
1789661153378.0,4.08,0.15433706,0.20129621,9.8682995,0.0,-0.0009162971,0.00030543236,-50.025,4.125,7.8750005,9.871558899887598,0.000965861947694172,0.15455156033669187,0.2011706582454521,9.868471733402325,,,,,,,,634080.0,,1,0,0,1,1
1789661153388.0,4.09,0.15433706,0.20129621,9.8682995,0.0,-0.0009162971,0.00030543236,-50.025,4.125,7.8750005,9.871558899887598,0.000965861947694172,0.15517124080602188,0.2017437432761654,9.867814623769867,,,,,,,,634080.0,,1,0,0,1,1
1789661153398.0,4.1,0.15702899,0.20398813,9.865309,0.0,0.00030543236,0.00030543236,-50.025,4.125,7.8750005,9.868667130183402,0.0004319465858996216,0.1560651112424605,0.20282045773090537,9.866613859971135,,,,,,,,634080.0,,1,0,0,1,1
1789661153408.0,4.11,0.15702899,0.20398813,9.865309,0.0,0.00030543236,0.00030543236,-49.350002,3.6750002,7.2000003,9.868667130183402,0.0004319465858996216,0.1569045499481088,0.20388040068096908,9.865434947532787,,,,,,,,634080.0,,1,0,0,1,1
1789661153418.0,4.12,0.15702899,0.20398813,9.865309,0.0,0.00030543236,0.00030543236,-49.350002,3.6750002,7.2000003,9.868667130183402,0.0004319465858996216,0.15736143917251766,0.20452976323811298,9.864693802421073,,,,,,,,634080.0,,1,0,0,1,1
1789661153428.0,4.13,0.15702899,0.20398813,9.865309,0.0,0.00030543236,0.00030543236,-49.350002,3.6750002,7.2000003,9.868667130183402,0.0004319465858996216,0.15728273945396623,0.2045774872896253,9.864604220940539,,,,,,,,634080.0,,1,0,0,1,1
1789661153438.0,4.14,0.15702899,0.20398813,9.865309,0.0,0.00030543236,0.00030543236,-49.350002,3.6750002,7.2000003,9.868667130183402,0.0004319465858996216,0.15676977542324455,0.20401020258636143,9.865225678382645,,,,,,,,634080.0,,1,0,0,1,1
1789661153448.0,4.15,0.15702899,0.20398813,9.865309,0.0,0.00030543236,0.00030543236,-49.350002,3.6750002,7.2000003,9.868667130183402,0.0004319465858996216,0.15614334577677105,0.20300206542497107,9.866438499413743,,,,,,,,634080.0,,1,0,0,1,1
1789661153458.0,4.16,0.15523437,0.20189442,9.868001,0.0,0.00030543236,0.00030543236,-49.350002,3.6750002,7.2000003,9.871286785544093,0.0004319465858996216,0.15579109911984124,0.20196639269298655,9.867837483268701,,,,,,,,634080.0,,1,0,0,1,1
1789661153468.0,4.17,0.15523437,0.20189442,9.868001,0.0,0.00030543236,0.00030543236,-49.350002,3.6750002,7.2000003,9.871286785544093,0.0004319465858996216,0.1559306211670932,0.20150385601113693,9.86873458652533,,,,,,,,634080.0,,1,0,0,1,1
1789661153478.0,4.18,0.15523437,0.20189442,9.868001,0.0,0.00030543236,0.00030543236,-49.350002,3.6750002,7.2000003,9.871286785544093,0.0004319465858996216,0.15642992534299868,0.20214015075620315,9.868439607963381,,,,,,,,634080.0,,1,0,0,1,1
1789661153488.0,4.19,0.1594218,0.2009971,9.871889,0.0,0.00030543236,0.00030543236,-49.350002,3.6750002,7.2000003,9.87522189992937,0.0004319465858996216,0.15686877699631072,0.2039687850139213,9.866717112587438,,,,,,,,634080.0,,1,0,0,1,1
1789661153498.0,4.2,0.15613168,0.20937198,9.860224,-0.0009162971,0.00030543236,0.00030543236,-49.350002,3.6750002,7.2000003,9.863682428874359,0.0010130045550434358,0.1568550869890478,0.2064891125403923,9.864049660160426,,,,,,,,634080.0,,1,0,0,1,1
1789661153508.0,4.21,0.15613168,0.20937198,9.860224,-0.0009162971,0.00030543236,0.00030543236,-49.95,3.7500002,7.65,9.863682428874359,0.0010130045550434358,0.15636175300388525,0.20882431901428994,9.86141013726625,,,,,,,,634080.0,,1,0,0,1,1
1789661153518.0,4.22,0.15613168,0.20937198,9.860224,-0.0009162971,0.00030543236,0.00030543236,-49.95,3.7500002,7.65,9.863682428874359,0.0010130045550434358,0.15580515622061697,0.2101788129996231,9.859688446226718,,,,,,,,634080.0,,1,0,0,1,1
1789661153528.0,4.23,0.15613168,0.20937198,9.860224,-0.0009162971,0.00030543236,0.00030543236,-49.95,3.7500002,7.65,9.863682428874359,0.0010130045550434358,0.15578958007131213,0.21020844915050071,9.85925810710304,,,,,,,,634080.0,,1,0,0,1,1
1789661153538.0,4.24,0.15613168,0.20937198,9.860224,-0.0009162971,0.00030543236,0.00030543236,-49.95,3.7500002,7.65,9.863682428874359,0.0010130045550434358,0.15667432576663032,0.20912778144287128,9.859988332383018,,,,,,,,634080.0,,1,0,0,1,1
1789661153548.0,4.25,0.15613168,0.20937198,9.860224,-0.0009162971,0.00030543236,0.00030543236,-49.95,3.7500002,7.65,9.863682428874359,0.0010130045550434358,0.15823852281523573,0.207606185645984,9.861556903800874,,,,,,,,634080.0,,1,0,0,1,1
1789661153558.0,4.26,0.16121642,0.20578274,9.865907,-0.0009162971,0.00030543236,0.00030543236,-49.95,3.7500002,7.65,9.869369696328562,0.0010130045550434358,0.1597075638547126,0.20652409754862594,9.863724253535251,,,,,,,,634080.0,,1,0,0,1,1
1789661153568.0,4.27,0.16121642,0.20578274,9.865907,-0.0009162971,0.00030543236,0.00030543236,-49.95,3.7500002,7.65,9.869369696328562,0.0010130045550434358,0.16020637666235948,0.2066063409831837,9.866373748588845,,,,,,,,634080.0,,1,0,0,1,1
1789661153578.0,4.28,0.16121642,0.20578274,9.865907,-0.0009162971,0.00030543236,0.00030543236,-49.95,3.7500002,7.65,9.869369696328562,0.0010130045550434358,0.15935023408843918,0.20805939032122897,9.86935739390611,,,,,,,,634080.0,,1,0,0,1,1
1789661153588.0,4.29,0.15463616,0.21385853,9.875478,-0.0009162971,0.00030543236,0.00030543236,-49.95,3.7500002,7.65,9.879003671490223,0.0010130045550434358,0.15749727058611276,0.21046911890526804,9.872343956776263,,,,,,,,634080.0,,1,0,0,1,1
1789661153598.0,4.3,0.15463616,0.21385853,9.875478,0.0,-0.0009162971,0.00030543236,-49.95,3.7500002,7.65,9.879003671490223,0.000965861947694172,0.15546220022023632,0.2130537718463557,9.874848181291986,,,,,,,,634080.0,,1,0,0,1,1
1789661153608.0,4.31,0.15463616,0.21385853,9.875478,0.0,-0.0009162971,0.00030543236,-49.575,3.6000001,7.3500004,9.879003671490223,0.000965861947694172,0.15399334187429073,0.21502199571622174,9.876409562198115,,,,,,,,634080.0,,1,0,0,1,1
1789661153618.0,4.32,0.15463616,0.21385853,9.875478,0.0,-0.0009162971,0.00030543236,-49.575,3.6000001,7.3500004,9.879003671490223,0.000965861947694172,0.1534740537082289,0.2157370555673097,9.87674127549989,,,,,,,,634080.0,,1,0,0,1,1
1789661153628.0,4.33,0.15463616,0.21385853,9.875478,0.0,-0.0009162971,0.00030543236,-49.575,3.6000001,7.3500004,9.879003671490223,0.000965861947694172,0.15396525157003296,0.21474776455581548,9.875796980813849,,,,,,,,634080.0,,1,0,0,1,1
1789661153638.0,4.34,0.15463616,0.21385853,9.875478,0.0,-0.0009162971,0.00030543236,-49.575,3.6000001,7.3500004,9.879003671490223,0.000965861947694172,0.15532867133336467,0.21198320766194442,9.873852967063147,,,,,,,,634080.0,,1,0,0,1,1
1789661153648.0,4.35,0.15463616,0.21385853,9.875478,0.0,-0.0009162971,0.00030543236,-49.575,3.6000001,7.3500004,9.879003671490223,0.000965861947694172,0.15721736967599337,0.20809109016326438,9.871553172299414,,,,,,,,634080.0,,1,0,0,1,1
1789661153658.0,4.36,0.16091733,0.19950159,9.865309,0.0,-0.0009162971,0.00030543236,-49.575,3.6000001,7.3500004,9.868638048737417,0.000965861947694172,0.15904973093231414,0.2044209675158402,9.869652698891041,,,,,,,,634080.0,,1,0,0,1,1
1789661153668.0,4.37,0.16091733,0.19950159,9.865309,0.0,-0.0009162971,0.00030543236,-49.575,3.6000001,7.3500004,9.868638048737417,0.000965861947694172,0.16019762268587662,0.20230875462804357,9.868431860560086,,,,,,,,634080.0,,1,0,0,1,1
1789661153678.0,4.38,0.16091733,0.19950159,9.865309,0.0,-0.0009162971,0.00030543236,-49.575,3.6000001,7.3500004,9.868638048737417,0.000965861947694172,0.16034688028072938,0.20213895400868667,9.867320051821249,,,,,,,,634080.0,,1,0,0,1,1
1789661153688.0,4.39,0.15882361,0.2111666,9.877572,0.0,-0.0009162971,0.00030543236,-49.575,3.6000001,7.3500004,9.881105448644549,0.000965861947694172,0.159705187109083,0.20311765580294255,9.865319824025452,,,,,,,,634080.0,,1,0,0,1,1
1789661153698.0,4.4,0.1582254,0.20279172,9.855738,0.0,-0.0007635809,-0.0007635809,-49.575,3.6000001,7.3500004,9.859093836836614,0.001079866464749054,0.158832088015585,0.20402722380680205,9.861994702893043,,,,,,,,634080.0,,1,0,0,1,1
1789661153708.0,4.41,0.1582254,0.20279172,9.855738,0.0,-0.0007635809,-0.0007635809,-50.025,3.7500002,7.8,9.859093836836614,0.001079866464749054,0.15823032038232826,0.2041887836044619,9.858051993134882,,,,,,,,634080.0,,1,0,0,1,1
1789661153718.0,4.42,0.1582254,0.20279172,9.855738,0.0,-0.0007635809,-0.0007635809,-50.025,3.7500002,7.8,9.859093836836614,0.001079866464749054,0.15804195773935684,0.2037336279490397,9.854955903697448,,,,,,,,634080.0,,1,0,0,1,1
1789661153728.0,4.43,0.1582254,0.20279172,9.855738,0.0,-0.0007635809,-0.0007635809,-50.025,3.7500002,7.8,9.859093836836614,0.001079866464749054,0.15805779776056247,0.20313580105636275,9.854003898758911,,,,,,,,634080.0,,1,0,0,1,1
1789661153738.0,4.44,0.1582254,0.20279172,9.855738,0.0,-0.0007635809,-0.0007635809,-50.025,3.7500002,7.8,9.859093836836614,0.001079866464749054,0.15796777309053353,0.20266588334340732,9.85561186591549,,,,,,,,634080.0,,1,0,0,1,1
1789661153748.0,4.45,0.1582254,0.20279172,9.855738,0.0,-0.0007635809,-0.0007635809,-50.025,3.7500002,7.8,9.859093836836614,0.001079866464749054,0.15761623973666616,0.20230603528792745,9.859106168706555,,,,,,,,634080.0,,1,0,0,1,1
1789661153758.0,4.46,0.15613168,0.20309082,9.865309,0.0,-0.0007635809,-0.0007635809,-50.025,3.7500002,7.8,9.868634386182766,0.001079866464749054,0.15706974744529253,0.20208549688542463,9.862966402431875,,,,,,,,634080.0,,1,0,0,1,1
1789661153768.0,4.47,0.15613168,0.20309082,9.865309,0.0,-0.0007635809,-0.0007635809,-50.025,3.7500002,7.8,9.868634386182766,0.001079866464749054,0.1564855073636326,0.20239415199516156,9.865435236004055,,,,,,,,634080.0,,1,0,0,1,1
1789661153778.0,4.48,0.15613168,0.20309082,9.865309,0.0,-0.0007635809,-0.0007635809,-50.025,3.7500002,7.8,9.868634386182766,0.001079866464749054,0.15593740546054646,0.20388121532367723,9.865316445929187,,,,,,,,634080.0,,1,0,0,1,1
1789661153788.0,4.49,0.15613168,0.20309082,9.865309,0.0,-0.0007635809,-0.0007635809,-50.025,3.7500002,7.8,9.868634386182766,0.001079866464749054,0.15537049408273332,0.20694634316239988,9.862573804098572,,,,,,,,634080.0,,1,0,0,1,1
1789661153798.0,4.5,0.15403795,0.21565314,9.854541,-0.0006108647,-0.0009162971,0.00030543236,-50.025,3.7500002,7.8,9.858103889060667,0.0011428232512990229,0.15471056039961018,0.2112296094439846,9.858363164018101,,,,,,,,634080.0,,1,0,0,1,1
1789661153808.0,4.51,0.15403795,0.21565314,9.854541,-0.0006108647,-0.0009162971,0.00030543236,-50.100002,4.05,7.9500003,9.858103889060667,0.0011428232512990229,0.1540137309018962,0.21551874764753412,9.854477336562857,,,,,,,,634080.0,,1,0,0,1,1
1789661153818.0,4.52,0.15403795,0.21565314,9.854541,-0.0006108647,-0.0009162971,0.00030543236,-50.100002,4.05,7.9500003,9.858103889060667,0.0011428232512990229,0.15352810958739907,0.21813946446912272,9.852546036068452,,,,,,,,634080.0,,1,0,0,1,1
1789661153828.0,4.53,0.15403795,0.21565314,9.854541,-0.0006108647,-0.0009162971,0.00030543236,-50.100002,4.05,7.9500003,9.858103889060667,0.0011428232512990229,0.1536070513038169,0.21763792248338967,9.85336842282034,,,,,,,,634080.0,,1,0,0,1,1
1789661153838.0,4.54,0.15403795,0.21565314,9.854541,-0.0006108647,-0.0009162971,0.00030543236,-50.100002,4.05,7.9500003,9.858103889060667,0.0011428232512990229,0.15448565734752673,0.2135749116277042,9.856544729396067,,,,,,,,634080.0,,1,0,0,1,1
1789661153848.0,4.55,0.15403795,0.21565314,9.854541,-0.0006108647,-0.0009162971,0.00030543236,-50.100002,4.05,7.9500003,9.858103889060667,0.0011428232512990229,0.1560301380243781,0.2071325810920789,9.860525082387745,,,,,,,,634080.0,,1,0,0,1,1
1789661153858.0,4.56,0.1591227,0.19441684,9.8682995,-0.0006108647,-0.0009162971,0.00030543236,-50.100002,4.05,7.9500003,9.87149699706337,0.0011428232512990229,0.15766784683732815,0.2009365697724834,9.86330605188469,,,,,,,,634080.0,,1,0,0,1,1
1789661153868.0,4.57,0.1591227,0.19441684,9.8682995,-0.0006108647,-0.0009162971,0.00030543236,-50.100002,4.05,7.9500003,9.87149699706337,0.0011428232512990229,0.15864236703239615,0.19775344687697421,9.863698928006174,,,,,,,,634080.0,,1,0,0,1,1
1789661153878.0,4.58,0.1591227,0.19441684,9.8682995,-0.0006108647,-0.0009162971,0.00030543236,-50.100002,4.05,7.9500003,9.87149699706337,0.0011428232512990229,0.1584666402627965,0.19878525012602472,9.862300819870487,,,,,,,,634080.0,,1,0,0,1,1
1789661153888.0,4.59,0.15702899,0.2114657,9.843175,-0.0006108647,-0.0009162971,0.00030543236,-50.100002,4.05,7.9500003,9.846698427727027,0.0011428232512990229,0.1572273201127912,0.2029757035203772,9.861101029819851,,,,,,,,634080.0,,1,0,0,1,1
1789661153898.0,4.6,0.15403795,0.20967108,9.867702,-0.0012217294,0.0013744456,0.00030543236,-50.100002,4.05,7.9500003,9.87113126306365,0.001864138503630803,0.15550217907275163,0.2079299454372775,9.861826147087601,,,,,,,,634080.0,,1,0,0,1,1
1789661153908.0,4.61,0.15403795,0.20967108,9.867702,-0.0012217294,0.0013744456,0.00030543236,-50.100002,4.05,7.9500003,9.87113126306365,0.001864138503630803,0.1539961861715519,0.21150382798863254,9.86450588207469,,,,,,,,634080.0,,1,0,0,1,1
1789661153918.0,4.62,0.15403795,0.20967108,9.867702,-0.0012217294,0.0013744456,0.00030543236,-49.875004,3.45,7.5750003,9.87113126306365,0.001864138503630803,0.15321188224527746,0.21267174491188817,9.867532168554042,,,,,,,,634080.0,,1,0,0,1,1
1789661153928.0,4.63,0.15403795,0.20967108,9.867702,-0.0012217294,0.0013744456,0.00030543236,-49.875004,3.45,7.5750003,9.87113126306365,0.001864138503630803,0.15334441943317378,0.21134096164776786,9.86895100045056,,,,,,,,634080.0,,1,0,0,1,1
1789661153938.0,4.64,0.15403795,0.20967108,9.867702,-0.0012217294,0.0013744456,0.00030543236,-49.875004,3.45,7.5750003,9.87113126306365,0.001864138503630803,0.15432268131144072,0.20788689155490744,9.867776492404518,,,,,,,,634080.0,,1,0,0,1,1
1789661153948.0,4.65,0.15403795,0.20967108,9.867702,-0.0012217294,0.0013744456,0.00030543236,-49.875004,3.45,7.5750003,9.87113126306365,0.001864138503630803,0.15583931646881405,0.20306895973585454,9.864482801371178,,,,,,,,634080.0,,1,0,0,1,1
1789661153958.0,4.66,0.1585245,0.19262223,9.857233,-0.0012217294,0.0013744456,0.00030543236,-49.875004,3.45,7.5750003,9.860389229481736,0.001864138503630803,0.1573753244834545,0.1980936305844684,9.860594321946596,,,,,,,,634080.0,,1,0,0,1,1
1789661153968.0,4.67,0.1585245,0.19262223,9.857233,-0.0012217294,0.0013744456,0.00030543236,-49.875004,3.45,7.5750003,9.860389229481736,0.001864138503630803,0.15834772208582568,0.19425293916219502,9.857745288965022,,,,,,,,634080.0,,1,0,0,1,1
1789661153978.0,4.68,0.1585245,0.19262223,9.857233,-0.0012217294,0.0013744456,0.00030543236,-49.875004,3.45,7.5750003,9.860389229481736,0.001864138503630803,0.15838959428933935,0.1921953274207224,9.85677779134765,,,,,,,,634080.0,,1,0,0,1,1
1789661153988.0,4.69,0.1585245,0.19262223,9.857233,-0.0012217294,0.0013744456,0.00030543236,-49.875004,3.45,7.5750003,9.860389229481736,0.001864138503630803,0.15756907413918353,0.1915302923220381,9.857409233984049,,,,,,,,634080.0,,1,0,0,1,1
1789661153998.0,4.7,0.15493527,0.1911267,9.859626,-0.0006108647,-0.00030543236,0.00030543236,-49.875004,3.45,7.5750003,9.862695332069164,0.0007481534166041276,0.15634415955611058,0.1912392791980129,9.858621986264694,,,,,,,,634080.0,,1,0,0,1,1
1789661154008.0,4.71,0.15493527,0.1911267,9.859626,-0.0006108647,-0.00030543236,0.00030543236,-50.025,3.9,7.1250005,9.862695332069164,0.0007481534166041276,0.15526565543417611,0.19059762418853082,9.85944174462595,,,,,,,,634080.0,,1,0,0,1,1
1789661154018.0,4.72,0.15493527,0.1911267,9.859626,-0.0006108647,-0.00030543236,0.00030543236,-50.025,3.9,7.1250005,9.862695332069164,0.0007481534166041276,0.15466090410648087,0.18987372641092418,9.85956451609202,,,,,,,,634080.0,,1,0,0,1,1
1789661154028.0,4.73,0.15493527,0.1911267,9.859626,-0.0006108647,-0.00030543236,0.00030543236,-50.025,3.9,7.1250005,9.862695332069164,0.0007481534166041276,0.15453651601784657,0.19023941562106195,9.85946103513198,,,,,,,,634080.0,,1,0,0,1,1
1789661154038.0,4.74,0.15493527,0.1911267,9.859626,-0.0006108647,-0.00030543236,0.00030543236,-50.025,3.9,7.1250005,9.862695332069164,0.0007481534166041276,0.15472843282535087,0.19285601453661505,9.859945122295743,,,,,,,,634080.0,,1,0,0,1,1
1789661154048.0,4.75,0.15493527,0.1911267,9.859626,-0.0006108647,-0.00030543236,0.00030543236,-50.025,3.9,7.1250005,9.862695332069164,0.0007481534166041276,0.15511861250560002,0.19772599046689862,9.861514752141774,,,,,,,,634080.0,,1,0,0,1,1
1789661154058.0,4.76,0.15613168,0.20877378,9.865608,-0.0006108647,-0.00030543236,0.00030543236,-50.025,3.9,7.1250005,9.86905186947455,0.0007481534166041276,0.155719909567107,0.2032514416152814,9.863904866606665,,,,,,,,634080.0,,1,0,0,1,1
1789661154068.0,4.77,0.15613168,0.20877378,9.865608,-0.0006108647,-0.00030543236,0.00030543236,-50.025,3.9,7.1250005,9.86905186947455,0.0007481534166041276,0.1565806609459966,0.20703895696791244,9.86615616883404,,,,,,,,634080.0,,1,0,0,1,1
1789661154078.0,4.78,0.15613168,0.20877378,9.865608,-0.0006108647,-0.00030543236,0.00030543236,-50.025,3.9,7.1250005,9.86905186947455,0.0007481534166041276,0.1576268218255272,0.20743699487187872,9.867172807718232,,,,,,,,634080.0,,1,0,0,1,1
1789661154088.0,4.79,0.16061822,0.20338993,9.872188,-0.0006108647,-0.00030543236,0.00030543236,-50.025,3.9,7.1250005,9.875589176528424,0.0007481534166041276,0.15861540845447375,0.20458293478373454,9.866417009386312,,,,,,,,634080.0,,1,0,0,1,1
1789661154098.0,4.8,0.1591227,0.19680966,9.860523,0.0,0.00030543236,0.00030543236,-50.025,3.9,7.1250005,9.863770471247474,0.0004319465858996216,0.1592670833404679,0.2001848562148859,9.86426970835827,,,,,,,,634080.0,,1,0,0,1,1
1789661154108.0,4.81,0.1591227,0.19680966,9.860523,0.0,0.00030543236,0.00030543236,-49.500004,3.9750001,6.525,9.863770471247474,0.0004319465858996216,0.15946131285998524,0.19638897781827158,9.861788161337671,,,,,,,,634080.0,,1,0,0,1,1
1789661154118.0,4.82,0.1591227,0.19680966,9.860523,0.0,0.00030543236,0.00030543236,-49.500004,3.9750001,6.525,9.863770471247474,0.0004319465858996216,0.15931248678161192,0.19469693291640677,9.860048741250646,,,,,,,,634080.0,,1,0,0,1,1
1789661154128.0,4.83,0.1591227,0.19680966,9.860523,0.0,0.00030543236,0.00030543236,-49.500004,3.9750001,6.525,9.863770471247474,0.0004319465858996216,0.1590724683577579,0.19552662158699718,9.859591162865684,,,,,,,,634080.0,,1,0,0,1,1
1789661154138.0,4.84,0.1591227,0.19680966,9.860523,0.0,0.00030543236,0.00030543236,-49.500004,3.9750001,6.525,9.863770471247474,0.0004319465858996216,0.15895631305352637,0.1983073305997653,9.860319110896002,,,,,,,,634080.0,,1,0,0,1,1
1789661154148.0,4.85,0.1591227,0.19680966,9.860523,0.0,0.00030543236,0.00030543236,-49.500004,3.9750001,6.525,9.863770471247474,0.0004319465858996216,0.159006546482845,0.20180321947134192,9.861772385048424,,,,,,,,634080.0,,1,0,0,1,1
1789661154158.0,4.86,0.1585245,0.20907287,9.865009,0.0,0.00030543236,0.00030543236,-49.500004,3.9750001,6.525,9.8684975579949,0.0004319465858996216,0.15904831232198452,0.20464606040170738,9.863465279778163,,,,,,,,634080.0,,1,0,0,1,1
1789661154168.0,4.87,0.1585245,0.20907287,9.865009,0.0,0.00030543236,0.00030543236,-49.500004,3.9750001,6.525,9.8684975579949,0.0004319465858996216,0.15875320044170987,0.20608728836816087,9.865080738790962,,,,,,,,634080.0,,1,0,0,1,1
1789661154178.0,4.88,0.1585245,0.20907287,9.865009,0.0,0.00030543236,0.00030543236,-49.500004,3.9750001,6.525,9.8684975579949,0.0004319465858996216,0.15781598019556486,0.20651113104270005,9.866478280752188,,,,,,,,634080.0,,1,0,0,1,1
1789661154188.0,4.89,0.15643078,0.19710876,9.8682995,0.0,0.00030543236,0.00030543236,-49.500004,3.9750001,6.525,9.871507355713229,0.0004319465858996216,0.15619017763881282,0.20707728748357873,9.867591690076042,,,,,,,,634080.0,,1,0,0,1,1
1789661154198.0,4.9,0.15343975,0.2117648,9.868599,0.0,0.00030543236,0.00030543236,-49.500004,3.9750001,6.525,9.87206332588077,0.0004319465858996216,0.15425054394336843,0.20860217614611942,9.868349196480683,,,,,,,,634080.0,,1,0,0,1,1
1789661154208.0,4.91,0.15343975,0.2117648,9.868599,0.0,0.00030543236,0.00030543236,-49.95,3.6000001,8.1,9.87206332588077,0.0004319465858996216,0.15275004629594363,0.21068314444100156,9.868696382644414,,,,,,,,634080.0,,1,0,0,1,1
1789661154218.0,4.92,0.15343975,0.2117648,9.868599,0.0,0.00030543236,0.00030543236,-49.95,3.6000001,8.1,9.87206332588077,0.0004319465858996216,0.1525317552778155,0.21192388408657598,9.8686764105116,,,,,,,,634080.0,,1,0,0,1,1
1789661154228.0,4.93,0.15343975,0.2117648,9.868599,0.0,0.00030543236,0.00030543236,-49.95,3.6000001,8.1,9.87206332588077,0.0004319465858996216,0.15407673102528568,0.21105856483572819,9.868463722026899,,,,,,,,634080.0,,1,0,0,1,1
1789661154238.0,4.94,0.15343975,0.2117648,9.868599,0.0,0.00030543236,0.00030543236,-49.95,3.6000001,8.1,9.87206332588077,0.0004319465858996216,0.1571029853818642,0.20799412583690927,9.868296059251096,,,,,,,,634080.0,,1,0,0,1,1
1789661154248.0,4.95,0.16360925,0.19950159,9.868001,0.0,0.00030543236,0.00030543236,-49.95,3.6000001,8.1,9.871373390116448,0.0004319465858996216,0.16052979882581928,0.2039435882647498,9.868325589744897,,,,,,,,634080.0,,1,0,0,1,1
1789661154258.0,4.96,0.16360925,0.19950159,9.868001,0.0,0.00030543236,0.00030543236,-49.95,3.6000001,8.1,9.871373390116448,0.0004319465858996216,0.162981460945855,0.20059237806341015,9.86847037619848,,,,,,,,634080.0,,1,0,0,1,1
1789661154268.0,4.97,0.16360925,0.19950159,9.868001,0.0,0.00030543236,0.00030543236,-49.95,3.6000001,8.1,9.871373390116448,0.0004319465858996216,0.1635750460446728,0.19898792419359382,9.86838762668725,,,,,,,,634080.0,,1,0,0,1,1
1789661154278.0,4.98,0.16360925,0.19950159,9.868001,0.0,0.00030543236,0.00030543236,-49.95,3.6000001,8.1,9.871373390116448,0.0004319465858996216,0.16241668739329526,0.19900710179250544,9.867653906414237,,,,,,,,634080.0,,1,0,0,1,1
1789661154288.0,4.99,0.1576272,0.20129621,9.868599,0.0,0.00030543236,0.00030543236,-49.95,3.6000001,8.1,9.871910287332497,0.0004319465858996216,0.16042793755000276,0.19970480409702662,9.866080758927257,,,,,,,,634080.0,,1,0,0,1,1
1789661154298.0,5.0,0.1585245,0.19950159,9.861421,0.0,0.00030543236,-0.0009162971,-49.95,3.6000001,8.1,9.864712618254714,0.000965861947694172,0.1586797637954427,0.20012317700533824,9.86393135544986,,,,,,,,634080.0,,1,0,0,1,1
1789661154308.0,5.01,0.1585245,0.19950159,9.861421,0.0,0.00030543236,-0.0009162971,-49.95,3.6000001,8.1,9.864712618254714,0.000965861947694172,0.15778285300334016,0.19990592127887444,9.861847221754248,,,,,,,,634080.0,,1,0,0,1,1
1789661154318.0,5.02,0.1585245,0.19950159,9.861421,0.0,0.00030543236,-0.0009162971,-49.725002,3.6750002,8.325001,9.864712618254714,0.000965861947694172,0.15774420771735803,0.1993785882396127,9.860545792942085,,,,,,,,634080.0,,1,0,0,1,1
1789661154328.0,5.03,0.1585245,0.19950159,9.861421,0.0,0.00030543236,-0.0009162971,-49.725002,3.6750002,8.325001,9.864712618254714,0.000965861947694172,0.15823842269791322,0.19918949958092638,9.860514013050377,,,,,,,,634080.0,,1,0,0,1,1
1789661154338.0,5.04,0.1585245,0.19950159,9.861421,0.0,0.00030543236,-0.0009162971,-49.725002,3.6750002,8.325001,9.864712618254714,0.000965861947694172,0.15893241207651534,0.19981243570233106,9.861827522467188,,,,,,,,634080.0,,1,0,0,1,1
1789661154348.0,5.05,0.1585245,0.19950159,9.861421,0.0,0.00030543236,-0.0009162971,-49.725002,3.6750002,8.325001,9.864712618254714,0.000965861947694172,0.15960112387857225,0.20120023523489228,9.864093090365357,,,,,,,,634080.0,,1,0,0,1,1
1789661154358.0,5.06,0.16061822,0.20428723,9.868897,0.0,0.00030543236,-0.0009162971,-49.725002,3.6750002,8.325001,9.87231783734428,0.000965861947694172,0.16007669062400057,0.20278068495102386,9.866548200565584,,,,,,,,634080.0,,1,0,0,1,1
1789661154368.0,5.07,0.16061822,0.20428723,9.868897,0.0,0.00030543236,-0.0009162971,-49.725002,3.6750002,8.325001,9.87231783734428,0.000965861947694172,0.1602196862037126,0.20381159090526915,9.868373197211437,,,,,,,,634080.0,,1,0,0,1,1
1789661154378.0,5.08,0.16061822,0.20428723,9.868897,0.0,0.00030543236,-0.0009162971,-49.725002,3.6750002,8.325001,9.87231783734428,0.000965861947694172,0.15998208636389652,0.20386927910457078,9.86909441997644,,,,,,,,634080.0,,1,0,0,1,1
1789661154388.0,5.09,0.1585245,0.20219351,9.868001,0.0,0.00030543236,-0.0009162971,-49.725002,3.6750002,8.325001,9.871345195493236,0.000965861947694172,0.159460831848016,0.20312259275754166,9.868802202930263,,,,,,,,634080.0,,1,0,0,1,1
1789661154398.0,5.1,0.1585245,0.20219351,9.868001,-0.00045814854,0.00030543236,0.00030543236,-49.725002,3.6750002,8.325001,9.871345195493236,0.0006296649408808392,0.1588480659542751,0.2022041120998669,9.868038831529187,,,,,,,,634080.0,,1,0,0,1,1
1789661154408.0,5.11,0.1585245,0.20219351,9.868001,-0.00045814854,0.00030543236,0.00030543236,-49.725002,3.6750002,8.325001,9.871345195493236,0.0006296649408808392,0.1583300000245802,0.2017884947733894,9.867473993613832,,,,,,,,634080.0,,1,0,0,1,1
