timestamp_ms,relative_time_s,accel_x,accel_y,accel_z,gyro_x,gyro_y,gyro_z,mag_x,mag_y,mag_z,accel_mag,gyro_mag,accel_x_filt,accel_y_filt,accel_z_filt,latitude,longitude,altitude,gnss_speed_m_s,gnss_accuracy,gnss_bearing,gnss_speed_km_h,cell_id,signal_dbm,flag_imu_valid,flag_gnss_valid,flag_speed_ref_valid,flag_outage,flag_cell_valid
1789661118741.0,0.0,0.15403795,0.2009971,9.863813,0.0,0.00030543236,0.00015271618,-47.7,3.7500002,4.05,9.867063110329113,0.0003414837597440938,0.15403918579650872,0.2009973059953936,9.863813665644066,,,,,,,,,,1,0,0,1,0
1789661118751.0,0.01,0.15732808,0.20697916,9.867104,0.0,0.00030543236,0.00015271618,-47.7,3.7500002,4.05,9.870528549386137,0.0003414837597440938,0.1561118598693694,0.20465836470353546,9.865435285658892,,,,,,,,156510.0,,1,0,0,1,1
1789661118761.0,0.02,0.15732808,0.20697916,9.867104,0.0,0.00030543236,0.00015271618,-47.7,3.7500002,4.05,9.870528549386137,0.0003414837597440938,0.15753386147978912,0.20717256190119746,9.866629172158428,,,,,,,,156510.0,,1,0,0,1,1
1789661118771.0,0.03,0.15732808,0.20697916,9.867104,0.0,0.00030543236,0.00015271618,-47.7,3.7500002,4.05,9.870528549386137,0.0003414837597440938,0.15792814182457987,0.20793625603755575,9.867321844952553,,,,,,,,156510.0,,1,0,0,1,1
1789661118781.0,0.04,0.15732808,0.20697916,9.867104,0.0,0.00030543236,0.00015271618,-47.7,3.7500002,4.05,9.870528549386137,0.0003414837597440938,0.157324949199637,0.20708070979626422,9.867813644552193,,,,,,,,156510.0,,1,0,0,1,1
1789661118791.0,0.05,0.15732808,0.20697916,9.867104,0.0,0.00030543236,0.00015271618,-47.7,3.7500002,4.05,9.870528549386137,0.0003414837597440938,0.15610734015046981,0.20527053478699772,9.868458295687537,,,,,,,,156510.0,,1,0,0,1,1
1789661118801.0,0.06,0.15373886,0.20129621,9.870692,0.0,0.00030543236,0.00015271618,-47.7,3.7500002,4.05,9.873941277934483,0.0003414837597440938,0.15482258999060516,0.2032959371031792,9.869339904981226,,,,,,,,156510.0,,1,0,0,1,1
1789661118811.0,0.07,0.15373886,0.20129621,9.870692,0.0,0.00030543236,0.00015271618,-47.7,3.7500002,4.05,9.873941277934483,0.0003414837597440938,0.1539327493582407,0.2016964267463301,9.870235950443297,,,,,,,,156510.0,,1,0,0,1,1
1789661118821.0,0.08,0.15373886,0.20129621,9.870692,0.0,0.00030543236,0.00015271618,-47.7,3.7500002,4.05,9.873941277934483,0.0003414837597440938,0.15361019685931296,0.2006065158738447,9.870838140052513,,,,,,,,156510.0,,1,0,0,1,1
1789661118831.0,0.09,0.15373886,0.20129621,9.870692,0.0,0.00030543236,0.00015271618,-47.7,3.7500002,4.05,9.873941277934483,0.0003414837597440938,0.15369924042126723,0.19988504963777037,9.870984289065415,,,,,,,,156510.0,,1,0,0,1,1
1789661118841.0,0.1,0.15403795,0.19860429,9.870394,0.0,0.00030543236,0.00015271618,-47.7,3.7500002,4.05,9.873593523600341,0.0003414837597440938,0.1538776146795633,0.1993737003245441,9.870729057173675,,,,,,,,156510.0,,1,0,0,1,1
1789661118851.0,0.11,0.15403795,0.19860429,9.870394,0.0,0.00030543236,0.00015271618,-47.7,3.7500002,4.05,9.873593523600341,0.0003414837597440938,0.15391120488935697,0.19902852303216212,9.870285295542082,,,,,,,,156510.0,,1,0,0,1,1
1789661118861.0,0.12,0.15403795,0.19860429,9.870394,0.0,0.00030543236,0.00015271618,-48.225002,3.9750001,5.4750004,9.873593523600341,0.0003414837597440938,0.15382947376191963,0.19883789873925908,9.869945852452306,,,,,,,,156510.0,,1,0,0,1,1
1789661118871.0,0.13,0.15403795,0.19860429,9.870394,0.0,0.00030543236,0.00015271618,-48.225002,3.9750001,5.4750004,9.873593523600341,0.0003414837597440938,0.15390100541274607,0.1986899955201342,9.870013162554201,,,,,,,,156510.0,,1,0,0,1,1
1789661118881.0,0.14,0.15403795,0.19860429,9.870394,0.0,0.00030543236,0.00015271618,-48.225002,3.9750001,5.4750004,9.873593523600341,0.0003414837597440938,0.15441606346751074,0.19839151669028882,9.870684346583452,,,,,,,,156510.0,,1,0,0,1,1
1789661118891.0,0.15,0.15403795,0.19860429,9.870394,0.0,0.00030543236,0.00015271618,-48.225002,3.9750001,5.4750004,9.873593523600341,0.0003414837597440938,0.15542340879178126,0.19785242497792482,9.87189354608709,,,,,,,,156510.0,,1,0,0,1,1
1789661118901.0,0.16,0.15792629,0.19710876,9.874282,0.0,0.00030543236,0.00015271618,-48.225002,3.9750001,5.4750004,9.87751171054056,0.0003414837597440938,0.1566318520395985,0.1972575801846611,9.873239666996435,,,,,,,,156510.0,,1,0,0,1,1
1789661118911.0,0.17,0.15792629,0.19710876,9.874282,0.0,0.00030543236,0.00015271618,-48.225002,3.9750001,5.4750004,9.87751171054056,0.0003414837597440938,0.1575819160408398,0.19702875083093901,9.874137076624143,,,,,,,,156510.0,,1,0,0,1,1
1789661118921.0,0.18,0.15792629,0.19710876,9.874282,0.0,0.00030543236,0.00015271618,-48.225002,3.9750001,5.4750004,9.87751171054056,0.0003414837597440938,0.1579639717202712,0.19755093328402748,9.874147764192033,,,,,,,,156510.0,,1,0,0,1,1
1789661118931.0,0.19,0.15792629,0.19710876,9.874282,0.0,0.00030543236,0.00015271618,-48.225002,3.9750001,5.4750004,9.87751171054056,0.0003414837597440938,0.15782023739381934,0.19885711938502057,9.873261099472442,,,,,,,,156510.0,,1,0,0,1,1
1789661118941.0,0.2,0.15702899,0.20249261,9.870394,0.0,0.00030543236,-0.0007635809,-48.225002,3.9750001,5.4750004,9.873719617046103,0.0008224017980160182,0.15746969717393855,0.20054192281607647,9.871900448105857,,,,,,,,156510.0,,1,0,0,1,1
1789661118951.0,0.21,0.15702899,0.20249261,9.870394,0.0,0.00030543236,-0.0007635809,-48.225002,3.9750001,5.4750004,9.873719617046103,0.0008224017980160182,0.15723142654627342,0.20200327531050363,9.870655662892759,,,,,,,,156510.0,,1,0,0,1,1
1789661118961.0,0.22,0.15702899,0.20249261,9.870394,0.0,0.00030543236,-0.0007635809,-49.125004,4.275,6.2250004,9.873719617046103,0.0008224017980160182,0.15717293248035208,0.20282015062749248,9.869957363695827,,,,,,,,156510.0,,1,0,0,1,1
1789661118971.0,0.23,0.15702899,0.20249261,9.870394,0.0,0.00030543236,-0.0007635809,-49.125004,4.275,6.2250004,9.873719617046103,0.0008224017980160182,0.15707549969674006,0.20295846991348668,9.869918721703407,,,,,,,,156510.0,,1,0,0,1,1
1789661118981.0,0.24,0.15702899,0.20249261,9.870394,0.0,0.00030543236,-0.0007635809,-49.125004,4.275,6.2250004,9.873719617046103,0.0008224017980160182,0.15663924419642164,0.2026838882937515,9.870384497404931,,,,,,,,156510.0,,1,0,0,1,1
1789661118991.0,0.25,0.15702899,0.20249261,9.870394,0.0,0.00030543236,-0.0007635809,-49.125004,4.275,6.2250004,9.873719617046103,0.0008224017980160182,0.1557651411320779,0.2023251522837637,9.871064862012943,,,,,,,,156510.0,,1,0,0,1,1
1789661119001.0,0.26,0.15343975,0.20219351,9.871889,0.0,0.00030543236,-0.0007635809,-49.125004,4.275,6.2250004,9.875151563428643,0.0008224017980160182,0.15467968860391604,0.2020982974958109,9.871648737313224,,,,,,,,156510.0,,1,0,0,1,1
1789661119011.0,0.27,0.15343975,0.20219351,9.871889,0.0,0.00030543236,-0.0007635809,-49.125004,4.275,6.2250004,9.875151563428643,0.0008224017980160182,0.15378844058817157,0.20207233152084023,9.871895996725232,,,,,,,,156510.0,,1,0,0,1,1
1789661119021.0,0.28,0.15343975,0.20219351,9.871889,0.0,0.00030543236,-0.0007635809,-49.125004,4.275,6.2250004,9.875151563428643,0.0008224017980160182,0.15338047933252896,0.20222167687381892,9.871731345888076,,,,,,,,156510.0,,1,0,0,1,1
1789661119031.0,0.29,0.15343975,0.20219351,9.871889,0.0,0.00030543236,-0.0007635809,-49.125004,4.275,6.2250004,9.875151563428643,0.0008224017980160182,0.15343725682316897,0.20248359568884988,9.87129557832938,,,,,,,,156510.0,,1,0,0,1,1
1789661119041.0,0.3,0.15403795,0.20309082,9.870394,0.0,0.0009162971,0.00015271618,-49.125004,4.275,6.2250004,9.873684787679037,0.0009289362772021568,0.15369417423354306,0.20278702970623613,9.870873764234457,,,,,,,,156510.0,,1,0,0,1,1
1789661119051.0,0.31,0.15403795,0.20309082,9.870394,0.0,0.0009162971,0.00015271618,-49.125004,4.275,6.2250004,9.873684787679037,0.0009289362772021568,0.15388026580675426,0.20306138816032313,9.870692795738778,,,,,,,,156510.0,,1,0,0,1,1
1789661119061.0,0.32,0.15403795,0.20309082,9.870394,0.0,0.0009162971,0.00015271618,-48.375004,4.2000003,5.625,9.873684787679037,0.0009289362772021568,0.15393205197885607,0.2032382590365813,9.870712921684667,,,,,,,,156510.0,,1,0,0,1,1
1789661119071.0,0.33,0.15403795,0.20309082,9.870394,0.0,0.0009162971,0.00015271618,-48.375004,4.2000003,5.625,9.873684787679037,0.0009289362772021568,0.15402126120043436,0.2032541687755667,9.87059893366456,,,,,,,,156510.0,,1,0,0,1,1
1789661119081.0,0.34,0.15403795,0.20309082,9.870394,0.0,0.0009162971,0.00015271618,-48.375004,4.2000003,5.625,9.873684787679037,0.0009289362772021568,0.1543879099015544,0.20306947030756178,9.869953928733677,,,,,,,,156510.0,,1,0,0,1,1
1789661119091.0,0.35,0.15403795,0.20309082,9.870394,0.0,0.0009162971,0.00015271618,-48.375004,4.2000003,5.625,9.873684787679037,0.0009289362772021568,0.1551201450890271,0.20271192157527737,9.868679269173569,,,,,,,,156510.0,,1,0,0,1,1
1789661119101.0,0.36,0.15732808,0.20219351,9.865907,0.0,0.0009162971,0.00015271618,-48.375004,4.2000003,5.625,9.869232760092935,0.0009289362772021568,0.15606626534649823,0.20231646179767349,9.86716861533418,,,,,,,,156510.0,,1,0,0,1,1
1789661119111.0,0.37,0.15732808,0.20219351,9.865907,0.0,0.0009162971,0.00015271618,-48.375004,4.2000003,5.625,9.869232760092935,0.0009289362772021568,0.15695003691816717,0.20210626115042588,9.866128070508633,,,,,,,,156510.0,,1,0,0,1,1
1789661119121.0,0.38,0.15732808,0.20219351,9.865907,0.0,0.0009162971,0.00015271618,-48.375004,4.2000003,5.625,9.869232760092935,0.0009289362772021568,0.1575719670827587,0.20229252149610327,9.866115446270621,,,,,,,,156510.0,,1,0,0,1,1
1789661119131.0,0.39,0.15732808,0.20219351,9.865907,0.0,0.0009162971,0.00015271618,-48.375004,4.2000003,5.625,9.869232760092935,0.0009289362772021568,0.1579103015236949,0.20294323874697892,9.867147592089687,,,,,,,,156510.0,,1,0,0,1,1
1789661119141.0,0.4,0.1582254,0.20488544,9.870394,0.0,-0.0009162971,0.00015271618,-48.375004,4.2000003,5.625,9.873788079352583,0.0009289362772021568,0.15806276210361964,0.20391131951847624,9.8686867618131,,,,,,,,156510.0,,1,0,0,1,1
1789661119151.0,0.41,0.1582254,0.20488544,9.870394,0.0,-0.0009162971,0.00015271618,-48.375004,4.2000003,5.625,9.873788079352583,0.0009289362772021568,0.15813120130679958,0.2048720499648324,9.870011861760965,,,,,,,,156510.0,,1,0,0,1,1
1789661119161.0,0.42,0.1582254,0.20488544,9.870394,0.0,-0.0009162971,0.00015271618,-48.975002,3.825,5.4,9.873788079352583,0.0009289362772021568,0.1581658150776854,0.20543999777303973,9.870675901709536,,,,,,,,156510.0,,1,0,0,1,1
1789661119171.0,0.43,0.1582254,0.20488544,9.870394,0.0,-0.0009162971,0.00015271618,-48.975002,3.825,5.4,9.873788079352583,0.0009289362772021568,0.15818310848253414,0.20530762439628925,9.870708507625466,,,,,,,,156510.0,,1,0,0,1,1
1789661119181.0,0.44,0.1582254,0.20488544,9.870394,0.0,-0.0009162971,0.00015271618,-48.975002,3.825,5.4,9.873788079352583,0.0009289362772021568,0.15819706868825395,0.20437677592768919,9.87045900165518,,,,,,,,156510.0,,1,0,0,1,1
1789661119191.0,0.45,0.1582254,0.20488544,9.870394,0.0,-0.0009162971,0.00015271618,-48.975002,3.825,5.4,9.873788079352583,0.0009289362772021568,0.15821474117501375,0.20284072167799172,9.870251575301603,,,,,,,,156510.0,,1,0,0,1,1
1789661119201.0,0.46,0.15792629,0.19890338,9.869496,0.0,-0.0009162971,0.00015271618,-48.975002,3.825,5.4,9.872763268794841,0.0009289362772021568,0.15820223350297702,0.20111922089485726,9.870116856313432,,,,,,,,156510.0,,1,0,0,1,1
1789661119211.0,0.47,0.15792629,0.19890338,9.869496,0.0,-0.0009162971,0.00015271618,-48.975002,3.825,5.4,9.872763268794841,0.0009289362772021568,0.15806891251447505,0.19961320095517046,9.869775206984713,,,,,,,,156510.0,,1,0,0,1,1
1789661119221.0,0.48,0.15792629,0.19890338,9.869496,0.0,-0.0009162971,0.00015271618,-48.975002,3.825,5.4,9.872763268794841,0.0009289362772021568,0.15771247032252725,0.1984489419528813,9.868882098513401,,,,,,,,156510.0,,1,0,0,1,1
1789661119231.0,0.49,0.15792629,0.19890338,9.869496,0.0,-0.0009162971,0.00015271618,-48.975002,3.825,5.4,9.872763268794841,0.0009289362772021568,0.15710924552350097,0.19745658061111618,9.867364679310004,,,,,,,,156510.0,,1,0,0,1,1
1789661119241.0,0.5,0.15553348,0.19531415,9.863514,0.0,-0.0009162971,-0.00045814854,-48.975002,3.825,5.4,9.866673538168127,0.0010244512971208253,0.1563713614106786,0.19641493198328364,9.865571645932684,,,,,,,,156510.0,,1,0,0,1,1
1789661119251.0,0.51,0.15553348,0.19531415,9.863514,0.0,-0.0009162971,-0.00045814854,-48.975002,3.825,5.4,9.866673538168127,0.0010244512971208253,0.15570635391777288,0.19534136488509998,9.864076062846696,,,,,,,,156510.0,,1,0,0,1,1
1789661119261.0,0.52,0.15553348,0.19531415,9.863514,0.0,-0.0009162971,-0.00045814854,-48.825,3.7500002,5.925,9.866673538168127,0.0010244512971208253,0.15530810783949697,0.1945944931588983,9.86328197656917,,,,,,,,156510.0,,1,0,0,1,1
1789661119271.0,0.53,0.15553348,0.19531415,9.863514,0.0,-0.0009162971,-0.00045814854,-48.825,3.7500002,5.925,9.866673538168127,0.0010244512971208253,0.1552682626451391,0.1947169716299121,9.863177176591027,,,,,,,,156510.0,,1,0,0,1,1
1789661119281.0,0.54,0.15553348,0.19531415,9.863514,0.0,-0.0009162971,-0.00045814854,-48.825,3.7500002,5.925,9.866673538168127,0.0010244512971208253,0.15555365552887915,0.19608844592478242,9.863426616055094,,,,,,,,156510.0,,1,0,0,1,1
1789661119291.0,0.55,0.15553348,0.19531415,9.863514,0.0,-0.0009162971,-0.00045814854,-48.825,3.7500002,5.925,9.866673538168127,0.0010244512971208253,0.15602638756871248,0.19858338530668326,9.86369517544591,,,,,,,,156510.0,,1,0,0,1,1
1789661119301.0,0.56,0.15672988,0.20488544,9.864711,0.0,-0.0009162971,-0.00045814854,-48.825,3.7500002,5.925,9.868083168089424,0.0010244512971208253,0.15648298755179693,0.20151501025239635,9.86393152226756,,,,,,,,156510.0,,1,0,0,1,1
1789661119311.0,0.57,0.15672988,0.20488544,9.864711,0.0,-0.0009162971,-0.00045814854,-48.825,3.7500002,5.925,9.868083168089424,0.0010244512971208253,0.15672326514038828,0.2039963185137567,9.864403274535634,,,,,,,,156510.0,,1,0,0,1,1
1789661119321.0,0.58,0.15672988,0.20488544,9.864711,0.0,-0.0009162971,-0.00045814854,-48.825,3.7500002,5.925,9.868083168089424,0.0010244512971208253,0.1566457106311524,0.20546715761346923,9.86544778493109,,,,,,,,156510.0,,1,0,0,1,1
1789661119331.0,0.59,0.15672988,0.20488544,9.864711,0.0,-0.0009162971,-0.00045814854,-48.825,3.7500002,5.925,9.868083168089424,0.0010244512971208253,0.15631416087456418,0.2059462598929793,9.867115940752907,,,,,,,,156510.0,,1,0,0,1,1
1789661119341.0,0.6,0.15553348,0.20578274,9.871291,0.0,0.00030543236,0.00015271618,-48.825,3.7500002,5.925,9.874660662836158,0.0003414837597440938,0.15592737154984457,0.20584709259688902,9.869020047985376,,,,,,,,156510.0,,1,0,0,1,1
1789661119351.0,0.61,0.15553348,0.20578274,9.871291,0.0,0.00030543236,0.00015271618,-48.825,3.7500002,5.925,9.874660662836158,0.0003414837597440938,0.15568511060996898,0.2056107946516923,9.870567159281583,,,,,,,,156510.0,,1,0,0,1,1
1789661119361.0,0.62,0.15553348,0.20578274,9.871291,0.0,0.00030543236,0.00015271618,-48.750004,3.7500002,6.3,9.874660662836158,0.0003414837597440938,0.1556359152597899,0.20548660160539636,9.871399021092458,,,,,,,,156510.0,,1,0,0,1,1
1789661119371.0,0.63,0.15553348,0.20578274,9.871291,0.0,0.00030543236,0.00015271618,-48.750004,3.7500002,6.3,9.874660662836158,0.0003414837597440938,0.15562918999161932,0.20554291943006384,9.87163855308655,,,,,,,,156510.0,,1,0,0,1,1
1789661119381.0,0.64,0.15553348,0.20578274,9.871291,0.0,0.00030543236,0.00015271618,-48.750004,3.7500002,6.3,9.874660662836158,0.0003414837597440938,0.15543227008500637,0.20576570720163892,9.871729903425894,,,,,,,,156510.0,,1,0,0,1,1
1789661119391.0,0.65,0.15553348,0.20578274,9.871291,0.0,0.00030543236,0.00015271618,-48.750004,3.7500002,6.3,9.874660662836158,0.0003414837597440938,0.15494872038981383,0.2060921537955113,9.87204468162742,,,,,,,,156510.0,,1,0,0,1,1
1789661119401.0,0.66,0.15433706,0.20608185,9.873384,0.0,0.00030543236,0.00015271618,-48.750004,3.7500002,6.3,9.87674041718445,0.0003414837597440938,0.154377969475706,0.2063668038932432,9.872606773701397,,,,,,,,156510.0,,1,0,0,1,1
1789661119411.0,0.67,0.15433706,0.20608185,9.873384,0.0,0.00030543236,0.00015271618,-48.750004,3.7500002,6.3,9.87674041718445,0.0003414837597440938,0.1541675822367846,0.2063271076216087,9.873135672054932,,,,,,,,156510.0,,1,0,0,1,1
1789661119421.0,0.68,0.15433706,0.20608185,9.873384,0.0,0.00030543236,0.00015271618,-48.750004,3.7500002,6.3,9.87674041718445,0.0003414837597440938,0.1547448456433481,0.20571322069200002,9.873319592095113,,,,,,,,156510.0,,1,0,0,1,1
1789661119431.0,0.69,0.15433706,0.20608185,9.873384,0.0,0.00030543236,0.00015271618,-48.750004,3.7500002,6.3,9.87674041718445,0.0003414837597440938,0.15619733603430985,0.2044619379435421,9.873066570686547,,,,,,,,156510.0,,1,0,0,1,1
1789661119441.0,0.7,0.16031912,0.2009971,9.871889,0.0,-0.00045814854,-0.0010690133,-48.750004,3.7500002,6.3,9.875236426676931,0.001163051813240073,0.15815030944666286,0.20282261648900862,9.872548121659195,,,,,,,,156510.0,,1,0,0,1,1
1789661119451.0,0.71,0.16031912,0.2009971,9.871889,0.0,-0.00045814854,-0.0010690133,-48.750004,3.7500002,6.3,9.875236426676931,0.001163051813240073,0.1599499984287584,0.20127702727339855,9.872045416550069,,,,,,,,156510.0,,1,0,0,1,1
1789661119461.0,0.72,0.16031912,0.2009971,9.871889,0.0,-0.00045814854,-0.0010690133,-49.725002,3.9750001,6.7500005,9.875236426676931,0.001163051813240073,0.16100476584913445,0.20032526846077023,9.871752940011417,,,,,,,,156510.0,,1,0,0,1,1
1789661119471.0,0.73,0.16031912,0.2009971,9.871889,0.0,-0.00045814854,-0.0010690133,-49.725002,3.9750001,6.7500005,9.875236426676931,0.001163051813240073,0.1610340171912192,0.20029342137116463,9.871686594889967,,,,,,,,156510.0,,1,0,0,1,1
1789661119481.0,0.74,0.16031912,0.2009971,9.871889,0.0,-0.00045814854,-0.0010690133,-49.725002,3.9750001,6.7500005,9.875236426676931,0.001163051813240073,0.16012688503635975,0.20122568203857488,9.87172076903503,,,,,,,,156510.0,,1,0,0,1,1
1789661119491.0,0.75,0.16031912,0.2009971,9.871889,0.0,-0.00045814854,-0.0010690133,-49.725002,3.9750001,6.7500005,9.875236426676931,0.001163051813240073,0.15868021587233164,0.20283238640315507,9.871672757216592,,,,,,,,156510.0,,1,0,0,1,1
1789661119501.0,0.76,0.15613168,0.20578274,9.870394,0.0,-0.00045814854,-0.0010690133,-49.725002,3.9750001,6.7500005,9.873773410040233,0.001163051813240073,0.15726466894709437,0.20452507103439127,9.871360752712837,,,,,,,,156510.0,,1,0,0,1,1
1789661119511.0,0.77,0.15613168,0.20578274,9.870394,0.0,-0.00045814854,-0.0010690133,-49.725002,3.9750001,6.7500005,9.873773410040233,0.001163051813240073,0.15639827966981032,0.20562462842799267,9.870652189242026,,,,,,,,156510.0,,1,0,0,1,1
1789661119521.0,0.78,0.15613168,0.20578274,9.870394,0.0,-0.00045814854,-0.0010690133,-49.725002,3.9750001,6.7500005,9.873773410040233,0.001163051813240073,0.1562845913151152,0.20570112942832378,9.869559280837832,,,,,,,,156510.0,,1,0,0,1,1
1789661119531.0,0.79,0.15613168,0.20578274,9.870394,0.0,-0.00045814854,-0.0010690133,-49.725002,3.9750001,6.7500005,9.873773410040233,0.001163051813240073,0.15669808370904403,0.204822158882944,9.868341029914724,,,,,,,,156510.0,,1,0,0,1,1
1789661119541.0,0.8,0.1582254,0.20219351,9.865309,0.0,-0.00045814854,-0.0010690133,-49.725002,3.9750001,6.7500005,9.868649307690099,0.001163051813240073,0.15714866408140243,0.20349868801386253,9.867453294690684,,,,,,,,156510.0,,1,0,0,1,1
1789661119551.0,0.81,0.1582254,0.20219351,9.865309,0.0,-0.00045814854,-0.0010690133,-49.725002,3.9750001,6.7500005,9.868649307690099,0.001163051813240073,0.15722889400507395,0.20234400741202377,9.867281599519234,,,,,,,,156510.0,,1,0,0,1,1
1789661119561.0,0.82,0.15583257,0.2015953,9.869795,0.0,0.00015271618,0.00015271618,-49.425003,3.9750001,6.675,9.87308349994468,0.0002159732929498108,0.15687186020545724,0.2016921006866943,9.867863386391297,,,,,,,,156510.0,,1,0,0,1,1
1789661119571.0,0.83,0.15583257,0.2015953,9.869795,0.0,0.00015271618,0.00015271618,-49.425003,3.9750001,6.675,9.87308349994468,0.0002159732929498108,0.15632162214317435,0.2014515015037041,9.868882531031124,,,,,,,,156510.0,,1,0,0,1,1
1789661119581.0,0.84,0.15583257,0.2015953,9.869795,0.0,0.00015271618,0.00015271618,-49.425003,3.9750001,6.675,9.87308349994468,0.0002159732929498108,0.155885490070474,0.20127791168737935,9.869928168072626,,,,,,,,156510.0,,1,0,0,1,1
1789661119591.0,0.85,0.15583257,0.2015953,9.869795,0.0,0.00015271618,0.00015271618,-49.425003,3.9750001,6.675,9.87308349994468,0.0002159732929498108,0.1557213610929737,0.2009031779890004,9.870725777331844,,,,,,,,156510.0,,1,0,0,1,1
1789661119601.0,0.86,0.15643078,0.19980069,9.870992,0.0,0.00015271618,0.00015271618,-49.425003,3.9750001,6.675,9.874253084092988,0.0002159732929498108,0.15582767460768937,0.200357994863916,9.871147215957947,,,,,,,,156510.0,,1,0,0,1,1
1789661119611.0,0.87,0.15643078,0.19980069,9.870992,0.0,0.00015271618,0.00015271618,-49.425003,3.9750001,6.675,9.874253084092988,0.0002159732929498108,0.15617073253844538,0.1999325171239328,9.871109979562986,,,,,,,,156510.0,,1,0,0,1,1
1789661119621.0,0.88,0.15643078,0.19980069,9.870992,0.0,0.00015271618,0.00015271618,-49.425003,3.9750001,6.675,9.874253084092988,0.0002159732929498108,0.15676473682101844,0.199932661520507,9.870571120824192,,,,,,,,156510.0,,1,0,0,1,1
1789661119631.0,0.89,0.15643078,0.19980069,9.870992,0.0,0.00015271618,0.00015271618,-49.425003,3.9750001,6.675,9.874253084092988,0.0002159732929498108,0.15761533631998764,0.20043856271689758,9.869635658621805,,,,,,,,156510.0,,1,0,0,1,1
1789661119641.0,0.9,0.15972091,0.20219351,9.867402,0.0,0.00030543236,-0.00045814854,-49.425003,3.9750001,6.675,9.870765685304324,0.0005506260175829881,0.15861398248040845,0.2012464568207034,9.868605508832863,,,,,,,,156510.0,,1,0,0,1,1
1789661119651.0,0.91,0.15972091,0.20219351,9.867402,0.0,0.00030543236,-0.00045814854,-49.425003,3.9750001,6.675,9.870765685304324,0.0005506260175829881,0.15952201696484272,0.20201232375956701,9.867832776295804,,,,,,,,156510.0,,1,0,0,1,1
1789661119661.0,0.92,0.15972091,0.20219351,9.867402,0.0,0.00030543236,-0.00045814854,-49.725002,4.125,6.6000004,9.870765685304324,0.0005506260175829881,0.16006898624744012,0.20245939042709216,9.867466912832121,,,,,,,,156510.0,,1,0,0,1,1
1789661119671.0,0.93,0.15972091,0.20219351,9.867402,0.0,0.00030543236,-0.00045814854,-49.725002,4.125,6.6000004,9.870765685304324,0.0005506260175829881,0.16007617053155326,0.2024942494266318,9.867335731883793,,,,,,,,156510.0,,1,0,0,1,1
1789661119681.0,0.94,0.15972091,0.20219351,9.867402,0.0,0.00030543236,-0.00045814854,-49.725002,4.125,6.6000004,9.870765685304324,0.0005506260175829881,0.15953095235118406,0.20219247504141197,9.867097098334458,,,,,,,,156510.0,,1,0,0,1,1
1789661119691.0,0.95,0.15972091,0.20219351,9.867402,0.0,0.00030543236,-0.00045814854,-49.725002,4.125,6.6000004,9.870765685304324,0.0005506260175829881,0.15859912908154833,0.201722914030001,9.866549111378651,,,,,,,,156510.0,,1,0,0,1,1
1789661119701.0,0.96,0.15643078,0.2009971,9.865309,0.0,0.00030543236,-0.00045814854,-49.725002,4.125,6.6000004,9.868596257250614,0.0005506260175829881,0.15756780531464248,0.20127750866257665,9.865838718292439,,,,,,,,156510.0,,1,0,0,1,1
1789661119711.0,0.97,0.15643078,0.2009971,9.865309,0.0,0.00030543236,-0.00045814854,-49.725002,4.125,6.6000004,9.868596257250614,0.0005506260175829881,0.15671851030158707,0.20101465481415232,9.865387331090895,,,,,,,,156510.0,,1,0,0,1,1
1789661119721.0,0.98,0.15643078,0.2009971,9.865309,0.0,0.00030543236,-0.00045814854,-49.725002,4.125,6.6000004,9.868596257250614,0.0005506260175829881,0.15619954024149818,0.20100834871348205,9.865581962291312,,,,,,,,156510.0,,1,0,0,1,1
1789661119731.0,0.99,0.15643078,0.2009971,9.865309,0.0,0.00030543236,-0.00045814854,-49.725002,4.125,6.6000004,9.868596257250614,0.0005506260175829881,0.15599914714500074,0.2012231899808119,9.866473360094657,,,,,,,,156510.0,,1,0,0,1,1
1789661119741.0,1.0,0.15613168,0.20189442,9.869197,0.0,0.00030543236,-0.00045814854,-49.725002,4.125,6.6000004,9.872496537509434,0.0005506260175829881,0.15602705082162613,0.201541342722057,9.86772178202378,,,,,,,,156510.0,,1,0,0,1,1
1789661119751.0,1.01,0.15613168,0.20189442,9.869197,0.0,0.00030543236,0.00015271618,-49.725002,4.125,6.6000004,9.872496537509434,0.0003414837597440938,0.15619621429103223,0.2018306705529702,9.868828984128239,,,,,,,,156510.0,,1,0,0,1,1
1789661119761.0,1.02,0.15613168,0.20189442,9.869197,0.0,0.00030543236,0.00015271618,-49.725002,4.125,6.6000004,9.872496537509434,0.0003414837597440938,0.1564136504655056,0.2020058627952731,9.869456904467532,,,,,,,,156510.0,,1,0,0,1,1
1789661119771.0,1.03,0.15613168,0.20189442,9.869197,0.0,0.00030543236,0.00015271618,-49.575,3.6750002,7.3500004,9.872496537509434,0.0003414837597440938,0.15651869118627398,0.20204253356861665,9.869579395314945,,,,,,,,634080.0,,1,0,0,1,1
1789661119781.0,1.04,0.15613168,0.20189442,9.869197,0.0,0.00030543236,0.00015271618,-49.575,3.6750002,7.3500004,9.872496537509434,0.0003414837597440938,0.15629692024335334,0.20195209134944028,9.869392069659677,,,,,,,,634080.0,,1,0,0,1,1
1789661119791.0,1.05,0.15613168,0.20189442,9.869197,0.0,0.00030543236,0.00015271618,-49.575,3.6750002,7.3500004,9.872496537509434,0.0003414837597440938,0.15564132970679098,0.20175736000511468,9.869117778532326,,,,,,,,634080.0,,1,0,0,1,1
1789661119801.0,1.06,0.15613168,0.20189442,9.869197,0.0,0.00030543236,0.00015271618,-49.575,3.6750002,7.3500004,9.872496537509434,0.0003414837597440938,0.15476079591674782,0.20148816585087692,9.8688825142163,,,,,,,,634080.0,,1,0,0,1,1
1789661119811.0,1.07,0.15373886,0.200698,9.868599,0.0,0.00030543236,0.00015271618,-49.575,3.6750002,7.3500004,9.871836786894276,0.0003414837597440938,0.15420675555029445,0.20117592371294707,9.868715301522135,,,,,,,,634080.0,,1,0,0,1,1
1789661119821.0,1.08,0.15373886,0.200698,9.868599,0.0,0.00030543236,0.00015271618,-49.575,3.6750002,7.3500004,9.871836786894276,0.0003414837597440938,0.15457852546050133,0.20082856203512356,9.868609226278412,,,,,,,,634080.0,,1,0,0,1,1
1789661119831.0,1.09,0.15373886,0.200698,9.868599,0.0,0.00030543236,0.00015271618,-49.575,3.6750002,7.3500004,9.871836786894276,0.0003414837597440938,0.1560699651154145,0.2004125506670376,9.868564897362052,,,,,,,,634080.0,,1,0,0,1,1
1789661119841.0,1.1,0.16091733,0.19950159,9.868599,0.0,0.00030543236,0.00015271618,-49.575,3.6750002,7.3500004,9.87192693927117,0.0003414837597440938,0.15824607907357605,0.19989004488607848,9.86858830793616,,,,,,,,634080.0,,1,0,0,1,1
1789661119851.0,1.11,0.16091733,0.19950159,9.868599,0.0,0.00030543236,0.00015271618,-49.575,3.6750002,7.3500004,9.87192693927117,0.0003414837597440938,0.1602825659746036,0.19931502013071858,9.86866117547775,,,,,,,,634080.0,,1,0,0,1,1
1789661119861.0,1.12,0.16091733,0.19950159,9.868599,0.0,0.00030543236,0.00015271618,-48.300003,3.9,4.5,9.87192693927117,0.0003414837597440938,0.1614740129866115,0.1989182020161277,9.86871823104733,,,,,,,,634080.0,,1,0,0,1,1
1789661119871.0,1.13,0.16091733,0.19950159,9.868599,0.0,0.00030543236,0.00015271618,-48.300003,3.9,4.5,9.87192693927117,0.0003414837597440938,0.16159108251742757,0.19907081716952693,9.868661361839736,,,,,,,,634080.0,,1,0,0,1,1
1789661119881.0,1.14,0.16091733,0.19950159,9.868599,0.0,0.00030543236,0.00015271618,-48.300003,3.9,4.5,9.87192693927117,0.0003414837597440938,0.16087227180518499,0.2000688974327117,9.86841606910009,,,,,,,,634080.0,,1,0,0,1,1
1789661119891.0,1.15,0.16091733,0.19950159,9.868599,0.0,0.00030543236,0.00015271618,-48.300003,3.9,4.5,9.87192693927117,0.0003414837597440938,0.15976762666023134,0.2018417282556105,9.867993225184504,,,,,,,,634080.0,,1,0,0,1,1
1789661119901.0,1.16,0.15732808,0.20578274,9.866804,0.0,0.00030543236,0.00015271618,-48.300003,3.9,4.5,9.870203636969928,0.0003414837597440938,0.1586575711086846,0.2038425752763063,9.867494217694036,,,,,,,,634080.0,,1,0,0,1,1
1789661119911.0,1.17,0.15732808,0.20578274,9.866804,0.0,0.00030543236,0.00015271618,-48.300003,3.9,4.5,9.870203636969928,0.0003414837597440938,0.15768912201360094,0.20530681854604707,9.867037486760287,,,,,,,,634080.0,,1,0,0,1,1
1789661119921.0,1.18,0.15732808,0.20578274,9.866804,0.0,0.00030543236,0.00015271618,-48.300003,3.9,4.5,9.870203636969928,0.0003414837597440938,0.15679176652137497,0.20573998132430157,9.866667837506649,,,,,,,,634080.0,,1,0,0,1,1
1789661119931.0,1.19,0.15732808,0.20578274,9.866804,0.0,0.00030543236,0.00015271618,-48.300003,3.9,4.5,9.870203636969928,0.0003414837597440938,0.1558513525564001,0.20524461215543552,9.866338308716998,,,,,,,,634080.0,,1,0,0,1,1
1789661119941.0,1.2,0.15373886,0.20338993,9.865608,0.0,0.00030543236,0.00015271618,-48.300003,3.9,4.5,9.868901879660346,0.0003414837597440938,0.15489355876660418,0.20440422651582038,9.865982603339209,,,,,,,,634080.0,,1,0,0,1,1
1789661119951.0,1.21,0.15373886,0.20338993,9.865608,0.0,0.00030543236,0.00015271618,-48.300003,3.9,4.5,9.868901879660346,0.0003414837597440938,0.15410096344327298,0.2038116566914117,9.865609918966632,,,,,,,,634080.0,,1,0,0,1,1
1789661119961.0,1.22,0.15373886,0.20338993,9.865608,0.0,0.00030543236,0.00015271618,-49.350002,4.3500004,5.625,9.868901879660346,0.0003414837597440938,0.15365532805836027,0.203614527471904,9.865344915781181,,,,,,,,634080.0,,1,0,0,1,1
1789661119971.0,1.23,0.15373886,0.20338993,9.865608,0.0,0.00030543236,0.00015271618,-49.350002,4.3500004,5.625,9.868901879660346,0.0003414837597440938,0.1535776816549395,0.20343295657011126,9.865381304638014,,,,,,,,634080.0,,1,0,0,1,1
1789661119981.0,1.24,0.15373886,0.20338993,9.865608,0.0,0.00030543236,0.00015271618,-49.350002,4.3500004,5.625,9.868901879660346,0.0003414837597440938,0.15372078170831566,0.20271612382573206,9.86586264257374,,,,,,,,634080.0,,1,0,0,1,1
1789661119991.0,1.25,0.15373886,0.20338993,9.865608,0.0,0.00030543236,0.00015271618,-49.350002,4.3500004,5.625,9.868901879660346,0.0003414837597440938,0.15390696007696658,0.20125594648732842,9.866752448013065,,,,,,,,634080.0,,1,0,0,1,1
1789661120001.0,1.26,0.15463616,0.19740787,9.868897,0.0,0.00030543236,0.00015271618,-49.350002,4.3500004,5.625,9.872082364209007,0.0003414837597440938,0.15408772003411392,0.19943124744062948,9.86779749706233,,,,,,,,634080.0,,1,0,0,1,1
1789661120011.0,1.27,0.15463616,0.19740787,9.868897,0.0,0.00030543236,0.00015271618,-49.350002,4.3500004,5.625,9.872082364209007,0.0003414837597440938,0.15439687528257612,0.19796371933306067,9.868646181200313,,,,,,,,634080.0,,1,0,0,1,1
1789661120021.0,1.28,0.15463616,0.19740787,9.868897,0.0,0.00030543236,0.00015271618,-49.350002,4.3500004,5.625,9.872082364209007,0.0003414837597440938,0.15504184416916927,0.19738721111769264,9.869049327738285,,,,,,,,634080.0,,1,0,0,1,1
1789661120031.0,1.29,0.15463616,0.19740787,9.868897,0.0,0.00030543236,0.00015271618,-49.350002,4.3500004,5.625,9.872082364209007,0.0003414837597440938,0.15609931723637085,0.19768039558801448,9.868986233740701,,,,,,,,634080.0,,1,0,0,1,1
1789661120041.0,1.3,0.15882361,0.19920248,9.8682995,0.0,0.00030543236,0.00015271618,-49.350002,4.3500004,5.625,9.871587592116672,0.0003414837597440938,0.1573843258845485,0.19835063791469995,9.868633871683695,,,,,,,,634080.0,,1,0,0,1,1
1789661120051.0,1.31,0.15882361,0.19920248,9.8682995,0.0,0.00030543236,0.00015271618,-49.350002,4.3500004,5.625,9.871587592116672,0.0003414837597440938,0.15852172214737095,0.19886420050187584,9.868240911428702,,,,,,,,634080.0,,1,0,0,1,1
1789661120061.0,1.32,0.15882361,0.19920248,9.8682995,0.0,0.00030543236,0.00015271618,-49.2,4.2000003,6.675,9.871587592116672,0.0003414837597440938,0.15916495190338678,0.1990582974509438,9.868018849480967,,,,,,,,634080.0,,1,0,0,1,1
1789661120071.0,1.33,0.15882361,0.19920248,9.8682995,0.0,0.00030543236,0.00015271618,-49.2,4.2000003,6.675,9.871587592116672,0.0003414837597440938,0.15917865538406917,0.19921945985067915,9.868095586776002,,,,,,,,634080.0,,1,0,0,1,1
1789661120081.0,1.34,0.15882361,0.19920248,9.8682995,0.0,0.00030543236,0.00015271618,-49.2,4.2000003,6.675,9.871587592116672,0.0003414837597440938,0.15866786417161433,0.1997885804935818,9.86849960502694,,,,,,,,634080.0,,1,0,0,1,1
1789661120091.0,1.35,0.15882361,0.19920248,9.8682995,0.0,0.00030543236,0.00015271618,-49.2,4.2000003,6.675,9.871587592116672,0.0003414837597440938,0.1578769089755282,0.2009461455699297,9.8691469246696,,,,,,,,634080.0,,1,0,0,1,1
1789661120101.0,1.36,0.15583257,0.20428723,9.870692,0.0,0.00030543236,0.00015271618,-49.2,4.2000003,6.675,9.874035528651792,0.0003414837597440938,0.157035891053091,0.2024278181950614,9.869860115346139,,,,,,,,634080.0,,1,0,0,1,1
1789661120111.0,1.37,0.15583257,0.20428723,9.870692,0.0,0.00030543236,0.00015271618,-49.2,4.2000003,6.675,9.874035528651792,0.0003414837597440938,0.15623138746268575,0.20372380713829608,9.870452389261294,,,,,,,,634080.0,,1,0,0,1,1
1789661120121.0,1.38,0.15583257,0.20428723,9.870692,0.0,0.00030543236,0.00015271618,-49.2,4.2000003,6.675,9.874035528651792,0.0003414837597440938,0.15538666498490056,0.20447182642266926,9.870832659287236,,,,,,,,634080.0,,1,0,0,1,1
1789661120131.0,1.39,0.15583257,0.20428723,9.870692,0.0,0.00030543236,0.00015271618,-49.2,4.2000003,6.675,9.874035528651792,0.0003414837597440938,0.15438707245756772,0.20469063989074104,9.871038881866731,,,,,,,,634080.0,,1,0,0,1,1
1789661120141.0,1.4,0.15194423,0.20458634,9.871291,0.0,-0.0009162971,0.00015271618,-49.2,4.2000003,6.675,9.874579921506832,0.0009289362772021568,0.1532516773049307,0.20467914579258256,9.871170198553505,,,,,,,,634080.0,,1,0,0,1,1
1789661120151.0,1.41,0.15194423,0.20458634,9.871291,0.0,-0.0009162971,0.00015271618,-49.2,4.2000003,6.675,9.874579921506832,0.0009289362772021568,0.15219239297412776,0.20471276366415728,9.871286582025839,,,,,,,,634080.0,,1,0,0,1,1
1789661120161.0,1.42,0.15194423,0.20458634,9.871291,0.0,-0.0009162971,0.00015271618,-47.7,4.275,3.6000001,9.874579921506832,0.0009289362772021568,0.1515185750069518,0.2048039873563005,9.87136198577336,,,,,,,,634080.0,,1,0,0,1,1
1789661120171.0,1.43,0.15194423,0.20458634,9.871291,0.0,-0.0009162971,0.00015271618,-47.7,4.275,3.6000001,9.874579921506832,0.0009289362772021568,0.1514813994787389,0.20470191946090605,9.871316365403663,,,,,,,,634080.0,,1,0,0,1,1
1789661120181.0,1.44,0.15194423,0.20458634,9.871291,0.0,-0.0009162971,0.00015271618,-47.7,4.275,3.6000001,9.874579921506832,0.0009289362772021568,0.15214796801007163,0.20411699109303238,9.871088794615936,,,,,,,,634080.0,,1,0,0,1,1
1789661120191.0,1.45,0.15194423,0.20458634,9.871291,0.0,-0.0009162971,0.00015271618,-47.7,4.275,3.6000001,9.874579921506832,0.0009289362772021568,0.15333524944445018,0.2029920253209614,9.870686697723691,,,,,,,,634080.0,,1,0,0,1,1
1789661120201.0,1.46,0.15583257,0.19980069,9.869197,0.0,-0.0009162971,0.00015271618,-47.7,4.275,3.6000001,9.872449216400472,0.0009289362772021568,0.1546411332905247,0.20159222519251851,9.87016372917914,,,,,,,,634080.0,,1,0,0,1,1
1789661120211.0,1.47,0.15583257,0.19980069,9.869197,0.0,-0.0009162971,0.00015271618,-47.7,4.275,3.6000001,9.872449216400472,0.0009289362772021568,0.15560837085411922,0.20032795074838952,9.869547663237329,,,,,,,,634080.0,,1,0,0,1,1
1789661120221.0,1.48,0.15583257,0.19980069,9.869197,0.0,-0.0009162971,0.00015271618,-47.7,4.275,3.6000001,9.872449216400472,0.0009289362772021568,0.15595458980213828,0.1994713412489702,9.868808970090257,,,,,,,,634080.0,,1,0,0,1,1
1789661120231.0,1.49,0.15583257,0.19980069,9.869197,0.0,-0.0009162971,0.00015271618,-47.7,4.275,3.6000001,9.872449216400472,0.0009289362772021568,0.15570835676081632,0.1990237119182157,9.867927905059192,,,,,,,,634080.0,,1,0,0,1,1
1789661120241.0,1.5,0.15463616,0.19860429,9.865907,-0.00045814854,0.00030543236,-0.00030543236,-47.7,4.275,3.6000001,9.86911733330975,0.0006296649408808392,0.15515278524129653,0.1988160862110698,9.866990079784063,,,,,,,,634080.0,,1,0,0,1,1
1789661120251.0,1.51,0.15463616,0.19860429,9.865907,-0.00045814854,0.00030543236,-0.00030543236,-47.7,4.275,3.6000001,9.86911733330975,0.0006296649408808392,0.15463632445242828,0.19869562519380654,9.866186649591242,,,,,,,,634080.0,,1,0,0,1,1
1789661120261.0,1.52,0.15463616,0.19860429,9.865907,-0.00045814854,0.00030543236,-0.00030543236,-48.525,4.05,5.775,9.86911733330975,0.0006296649408808392,0.15439564148472792,0.1986208326075114,9.86570519172524,,,,,,,,634080.0,,1,0,0,1,1
1789661120271.0,1.53,0.15463616,0.19860429,9.865907,-0.00045814854,0.00030543236,-0.00030543236,-48.525,4.05,5.775,9.86911733330975,0.0006296649408808392,0.15448743308527313,0.19862813622361875,9.865620173127333,,,,,,,,634080.0,,1,0,0,1,1
1789661120281.0,1.54,0.15463616,0.19860429,9.865907,-0.00045814854,0.00030543236,-0.00030543236,-48.525,4.05,5.775,9.86911733330975,0.0006296649408808392,0.15482644919908228,0.19875047923751507,9.86586769634256,,,,,,,,634080.0,,1,0,0,1,1
1789661120291.0,1.55,0.15463616,0.19860429,9.865907,-0.00045814854,0.00030543236,-0.00030543236,-48.525,4.05,5.775,9.86911733330975,0.0006296649408808392,0.15527818649041433,0.19897977527278143,9.866286216614537,,,,,,,,634080.0,,1,0,0,1,1
1789661120301.0,1.56,0.15672988,0.2000998,9.866804,-0.00045814854,0.00030543236,-0.00030543236,-48.525,4.05,5.775,9.870077272223398,0.0006296649408808392,0.1557640840166132,0.19930468208785337,9.8666728552433,,,,,,,,634080.0,,1,0,0,1,1
1789661120311.0,1.57,0.15672988,0.2000998,9.866804,-0.00045814854,0.00030543236,-0.00030543236,-48.525,4.05,5.775,9.870077272223398,0.0006296649408808392,0.1563341263333045,0.19977300169342072,9.866844660697659,,,,,,,,634080.0,,1,0,0,1,1
1789661120321.0,1.58,0.15672988,0.2000998,9.866804,-0.00045814854,0.00030543236,-0.00030543236,-48.525,4.05,5.775,9.870077272223398,0.0006296649408808392,0.15713936489772734,0.20048481762198955,9.86670938370113,,,,,,,,634080.0,,1,0,0,1,1
1789661120331.0,1.59,0.15672988,0.2000998,9.866804,-0.00045814854,0.00030543236,-0.00030543236,-48.525,4.05,5.775,9.870077272223398,0.0006296649408808392,0.15828603995809404,0.2014853951100134,9.866316135009995,,,,,,,,634080.0,,1,0,0,1,1
1789661120341.0,1.6,0.16121642,0.20398813,9.865309,-0.00045814854,0.00030543236,-0.00030543236,-48.525,4.05,5.775,9.868734648207921,0.0006296649408808392,0.15967809547403844,0.20265452149176277,9.865834898783943,,,,,,,,634080.0,,1,0,0,1,1
1789661120351.0,1.61,0.16121642,0.20398813,9.865309,0.0,0.00030543236,-0.0010690133,-48.525,4.05,5.775,9.868734648207921,0.0011117906107321017,0.16099332590815235,0.20371748131841338,9.86545515264615,,,,,,,,634080.0,,1,0,0,1,1
1789661120361.0,1.62,0.16121642,0.20398813,9.865309,0.0,0.00030543236,-0.0010690133,-49.800003,4.05,7.05,9.868734648207921,0.0011117906107321017,0.1618126964323914,0.20437560736940444,9.865268757170051,,,,,,,,634080.0,,1,0,0,1,1
1789661120371.0,1.63,0.16121642,0.20398813,9.865309,0.0,0.00030543236,-0.0010690133,-49.800003,4.05,7.05,9.868734648207921,0.0011117906107321017,0.16180126990196003,0.2044420935367167,9.865228807840193,,,,,,,,634080.0,,1,0,0,1,1
1789661120381.0,1.64,0.16121642,0.20398813,9.865309,0.0,0.00030543236,-0.0010690133,-49.800003,4.05,7.05,9.868734648207921,0.0011117906107321017,0.16086042864503314,0.20391028334510372,9.865215450148794,,,,,,,,634080.0,,1,0,0,1,1
1789661120391.0,1.65,0.16121642,0.20398813,9.865309,0.0,0.00030543236,-0.0010690133,-49.800003,4.05,7.05,9.868734648207921,0.0011117906107321017,0.1592182744317358,0.2029693668659679,9.865149267786562,,,,,,,,634080.0,,1,0,0,1,1
1789661120401.0,1.66,0.15553348,0.20129621,9.865009,0.0,0.00030543236,-0.0010690133,-49.800003,4.05,7.05,9.868288270903028,0.0011117906107321017,0.15739016866293484,0.20197394316927358,9.865057620623709,,,,,,,,634080.0,,1,0,0,1,1
1789661120411.0,1.67,0.15553348,0.20129621,9.865009,0.0,0.00030543236,-0.0010690133,-49.800003,4.05,7.05,9.868288270903028,0.0011117906107321017,0.15595624540443917,0.20133216685409713,9.86504176205502,,,,,,,,634080.0,,1,0,0,1,1
1789661120421.0,1.68,0.15553348,0.20129621,9.865009,0.0,0.00030543236,-0.0010690133,-49.800003,4.05,7.05,9.868288270903028,0.0011117906107321017,0.15526441373551125,0.20132460123688728,9.865172650072267,,,,,,,,634080.0,,1,0,0,1,1
1789661120431.0,1.69,0.15553348,0.20129621,9.865009,0.0,0.00030543236,-0.0010690133,-49.800003,4.05,7.05,9.868288270903028,0.0011117906107321017,0.15528308879096894,0.20195804705243015,9.865404677659445,,,,,,,,634080.0,,1,0,0,1,1
1789661120441.0,1.7,0.15613168,0.20398813,9.865907,0.0,-0.0009162971,0.00015271618,-49.800003,4.05,7.05,9.869250690469338,0.0009289362772021568,0.15570482366471558,0.20296176400506988,9.865594607544455,,,,,,,,634080.0,,1,0,0,1,1
1789661120451.0,1.71,0.15613168,0.20398813,9.865907,0.0,-0.0009162971,0.00015271618,-49.800003,4.05,7.05,9.869250690469338,0.0009289362772021568,0.156175294642635,0.20392618105564556,9.865634917882216,,,,,,,,634080.0,,1,0,0,1,1
1789661120461.0,1.72,0.15613168,0.20398813,9.865907,0.0,-0.0009162971,0.00015271618,-49.800003,3.7500002,7.5750003,9.869250690469338,0.0009289362772021568,0.15645311916436921,0.20447938882489075,9.865600791362098,,,,,,,,634080.0,,1,0,0,1,1
1789661120471.0,1.73,0.15613168,0.20398813,9.865907,0.0,-0.0009162971,0.00015271618,-49.800003,3.7500002,7.5750003,9.869250690469338,0.0009289362772021568,0.15643188301779248,0.2044036900075865,9.865763177022597,,,,,,,,634080.0,,1,0,0,1,1
1789661120481.0,1.74,0.15613168,0.20398813,9.865907,0.0,-0.0009162971,0.00015271618,-49.800003,3.7500002,7.5750003,9.869250690469338,0.0009289362772021568,0.1561028565527507,0.20368404977144286,9.866407924954874,,,,,,,,634080.0,,1,0,0,1,1
1789661120491.0,1.75,0.15613168,0.20398813,9.865907,0.0,-0.0009162971,0.00015271618,-49.800003,3.7500002,7.5750003,9.869250690469338,0.0009289362772021568,0.15555501752121095,0.20251561945539712,9.867580945665583,,,,,,,,634080.0,,1,0,0,1,1
1789661120501.0,1.76,0.15493527,0.19980069,9.870692,0.0,-0.0009162971,0.00015271618,-49.800003,3.7500002,7.5750003,9.87392960337871,0.0009289362772021568,0.1550082246253078,0.20124334039343134,9.868990315664021,,,,,,,,634080.0,,1,0,0,1,1
1789661120511.0,1.77,0.15493527,0.19980069,9.870692,0.0,-0.0009162971,0.00015271618,-49.800003,3.7500002,7.5750003,9.87392960337871,0.0009289362772021568,0.15478795248407945,0.20020209253099533,9.870187824374712,,,,,,,,634080.0,,1,0,0,1,1
1789661120521.0,1.78,0.15493527,0.19980069,9.870692,0.0,-0.0009162971,0.00015271618,-49.800003,3.7500002,7.5750003,9.87392960337871,0.0009289362772021568,0.15518390730625464,0.19953895937392413,9.870888045326142,,,,,,,,634080.0,,1,0,0,1,1
1789661120531.0,1.79,0.15493527,0.19980069,9.870692,0.0,-0.0009162971,0.00015271618,-49.800003,3.7500002,7.5750003,9.87392960337871,0.0009289362772021568,0.1562606094575879,0.1991686797993423,9.871141795438087,,,,,,,,634080.0,,1,0,0,1,1
1789661120541.0,1.8,0.1594218,0.19860429,9.871291,0.0,0.0,0.00015271618,-49.800003,3.7500002,7.5750003,9.874575686124576,0.00015271618,0.1577680251064985,0.19890333216149436,9.871226302111584,,,,,,,,634080.0,,1,0,0,1,1
1789661120551.0,1.81,0.1594218,0.19860429,9.871291,0.0,0.0,0.00015271618,-49.800003,3.7500002,7.5750003,9.874575686124576,0.00015271618,0.15923078612882588,0.1986350753447889,9.871372050591681,,,,,,,,634080.0,,1,0,0,1,1
1789661120561.0,1.82,0.1594218,0.19860429,9.871291,0.0,0.0,0.00015271618,-49.800003,3.525,7.275,9.874575686124576,0.00015271618,0.16014162349873914,0.1984257142212152,9.871555201847887,,,,,,,,634080.0,,1,0,0,1,1
1789661120571.0,1.83,0.1594218,0.19860429,9.871291,0.0,0.0,0.00015271618,-49.800003,3.525,7.275,9.874575686124576,0.00015271618,0.1601342557244708,0.19845479784546446,9.87150550660563,,,,,,,,634080.0,,1,0,0,1,1
1789661120581.0,1.84,0.1594218,0.19860429,9.871291,0.0,0.0,0.00015271618,-49.800003,3.525,7.275,9.874575686124576,0.00015271618,0.15910567914886253,0.1988748832738322,9.870926538741086,,,,,,,,634080.0,,1,0,0,1,1
1789661120591.0,1.85,0.1594218,0.19860429,9.871291,0.0,0.0,0.00015271618,-49.800003,3.525,7.275,9.874575686124576,0.00015271618,0.157309655747483,0.19967456066678504,9.869779323264286,,,,,,,,634080.0,,1,0,0,1,1
1789661120601.0,1.86,0.15373886,0.20189442,9.867104,0.0,0.0,0.00015271618,-49.800003,3.525,7.275,9.870366677115761,0.00015271618,0.1553523419337291,0.20065525451150143,9.868407596702271,,,,,,,,634080.0,,1,0,0,1,1
1789661120611.0,1.87,0.15373886,0.20189442,9.867104,0.0,0.0,0.00015271618,-49.800003,3.525,7.275,9.870366677115761,0.00015271618,0.15397905328583472,0.20155049141079012,9.867373911160243,,,,,,,,634080.0,,1,0,0,1,1
1789661120621.0,1.88,0.15373886,0.20189442,9.867104,0.0,0.0,0.00015271618,-49.800003,3.525,7.275,9.870366677115761,0.00015271618,0.15370684107609509,0.2021850691110233,9.867109779732763,,,,,,,,634080.0,,1,0,0,1,1
1789661120631.0,1.89,0.15373886,0.20189442,9.867104,0.0,0.0,0.00015271618,-49.800003,3.525,7.275,9.870366677115761,0.00015271618,0.15455017710700217,0.20253326832381904,9.867650576236938,,,,,,,,634080.0,,1,0,0,1,1
1789661120641.0,1.9,0.1576272,0.20279172,9.869795,0.0,0.00030543236,0.00015271618,-49.800003,3.525,7.275,9.873136490391765,0.0003414837597440938,0.15604301243967694,0.20265677119265468,9.868649233198402,,,,,,,,634080.0,,1,0,0,1,1
1789661120651.0,1.91,0.1576272,0.20279172,9.869795,0.0,0.00030543236,0.00015271618,-49.800003,3.525,7.275,9.873136490391765,0.0003414837597440938,0.15751357853310174,0.20263269341929924,9.869621307411458,,,,,,,,634080.0,,1,0,0,1,1
1789661120661.0,1.92,0.1576272,0.20279172,9.869795,0.0,0.00030543236,0.00015271618,-49.125004,3.6000001,6.15,9.873136490391765,0.0003414837597440938,0.15838613075870048,0.20255619400778793,9.870205397327585,,,,,,,,634080.0,,1,0,0,1,1
1789661120671.0,1.93,0.1576272,0.20279172,9.869795,0.0,0.00030543236,0.00015271618,-49.125004,3.6000001,6.15,9.873136490391765,0.0003414837597440938,0.15834103022646667,0.2025730648953835,9.870269280078531,,,,,,,,634080.0,,1,0,0,1,1
1789661120681.0,1.94,0.1576272,0.20279172,9.869795,0.0,0.00030543236,0.00015271618,-49.125004,3.6000001,6.15,9.873136490391765,0.0003414837597440938,0.1573575966541862,0.2028374061359167,9.869875356465615,,,,,,,,634080.0,,1,0,0,1,1
1789661120691.0,1.95,0.1576272,0.20279172,9.869795,0.0,0.00030543236,0.00015271618,-49.125004,3.6000001,6.15,9.873136490391765,0.0003414837597440938,0.15573471085604046,0.20336758555904008,9.869229662685715,,,,,,,,634080.0,,1,0,0,1,1
1789661120701.0,1.96,0.15284155,0.20368902,9.868897,0.0,0.00030543236,0.00015271618,-49.125004,3.6000001,6.15,9.872182015789821,0.0003414837597440938,0.15405981903870725,0.2039095465197996,9.868668943879447,,,,,,,,634080.0,,1,0,0,1,1
1789661120711.0,1.97,0.15284155,0.20368902,9.868897,0.0,0.00030543236,0.00015271618,-49.125004,3.6000001,6.15,9.872182015789821,0.0003414837597440938,0.15300953555890293,0.20397402567303508,9.868607382307152,,,,,,,,634080.0,,1,0,0,1,1
1789661120721.0,1.98,0.15284155,0.20368902,9.868897,0.0,0.00030543236,0.00015271618,-49.125004,3.6000001,6.15,9.872182015789821,0.0003414837597440938,0.15300360980258446,0.2031094162700055,9.869358935355939,,,,,,,,634080.0,,1,0,0,1,1
1789661120731.0,1.99,0.15284155,0.20368902,9.868897,0.0,0.00030543236,0.00015271618,-49.125004,3.6000001,6.15,9.872182015789821,0.0003414837597440938,0.15394436071483325,0.2012541318821921,9.870905064511605,,,,,,,,634080.0,,1,0,0,1,1
1789661120741.0,2.0,0.15672988,0.19621146,9.87488,0.0,0.00030543236,-0.0007635809,-49.125004,3.6000001,6.15,9.878072595740534,0.0008224017980160182,0.15527580222731413,0.19887650770863857,9.872815975359831,,,,,,,,634080.0,,1,0,0,1,1
1789661120751.0,2.01,0.15672988,0.19621146,9.87488,0.0,0.00030543236,-0.0007635809,-49.125004,3.6000001,6.15,9.878072595740534,0.0008224017980160182,0.15635366575490192,0.1967475034256422,9.874454444520648,,,,,,,,634080.0,,1,0,0,1,1
1789661120761.0,2.02,0.15672988,0.19621146,9.87488,0.0,0.00030543236,-0.0007635809,-49.875004,3.3750002,7.5750003,9.878072595740534,0.0008224017980160182,0.15685580033493315,0.19551820092779554,9.875332386690802,,,,,,,,634080.0,,1,0,0,1,1
1789661120771.0,2.03,0.15672988,0.19621146,9.87488,0.0,0.00030543236,-0.0007635809,-49.875004,3.3750002,7.5750003,9.878072595740534,0.0008224017980160182,0.1569257691364627,0.19543151714574342,9.875342606564216,,,,,,,,634080.0,,1,0,0,1,1
1789661120781.0,2.04,0.15672988,0.19621146,9.87488,0.0,0.00030543236,-0.0007635809,-49.875004,3.3750002,7.5750003,9.878072595740534,0.0008224017980160182,0.15696355930788564,0.19631157287600196,9.87472111844445,,,,,,,,634080.0,,1,0,0,1,1
1789661120791.0,2.05,0.15672988,0.19621146,9.87488,0.0,0.00030543236,-0.0007635809,-49.875004,3.3750002,7.5750003,9.878072595740534,0.0008224017980160182,0.15725212768447486,0.19772027838938608,9.873821583366254,,,,,,,,634080.0,,1,0,0,1,1
1789661120801.0,2.06,0.15792629,0.20039889,9.871291,0.0,0.00030543236,-0.0007635809,-49.875004,3.3750002,7.5750003,9.87458791215448,0.0008224017980160182,0.15771075479030233,0.19914346497866042,9.872869101533173,,,,,,,,634080.0,,1,0,0,1,1
1789661120811.0,2.07,0.15792629,0.20039889,9.871291,0.0,0.00030543236,-0.0007635809,-49.875004,3.3750002,7.5750003,9.87458791215448,0.0008224017980160182,0.15794939340697073,0.20016858083088374,9.871833654943233,,,,,,,,634080.0,,1,0,0,1,1
1789661120821.0,2.08,0.15792629,0.20039889,9.871291,0.0,0.00030543236,-0.0007635809,-49.875004,3.3750002,7.5750003,9.87458791215448,0.0008224017980160182,0.15757363480459186,0.20062234704518583,9.870515957359627,,,,,,,,634080.0,,1,0,0,1,1
1789661120831.0,2.09,0.15792629,0.20039889,9.871291,0.0,0.00030543236,-0.0007635809,-49.875004,3.3750002,7.5750003,9.87458791215448,0.0008224017980160182,0.15650776355287604,0.20059313738150036,9.868811052567166,,,,,,,,634080.0,,1,0,0,1,1
1789661120841.0,2.1,0.15343975,0.2000998,9.864711,0.0,-0.00015271618,0.00015271618,-49.875004,3.3750002,7.5750003,9.86793325881165,0.0002159732929498108,0.1550846978614391,0.20031909836222328,9.866924377138913,,,,,,,,634080.0,,1,0,0,1,1
1789661120851.0,2.11,0.15343975,0.2000998,9.864711,0.0,-0.00015271618,0.00015271618,-49.875004,3.3750002,7.5750003,9.86793325881165,0.0002159732929498108,0.15383187303443532,0.20003439879040869,9.865308738187546,,,,,,,,634080.0,,1,0,0,1,1
1789661120861.0,2.12,0.15343975,0.2000998,9.864711,0.0,-0.00015271618,0.00015271618,-49.875004,4.05,6.9,9.86793325881165,0.0002159732929498108,0.1531345372486925,0.1998839755103355,9.86436671813562,,,,,,,,634080.0,,1,0,0,1,1
1789661120871.0,2.13,0.15343975,0.2000998,9.864711,0.0,-0.00015271618,0.00015271618,-49.875004,4.05,6.9,9.86793325881165,0.0002159732929498108,0.15304578649774944,0.19992774605301455,9.864202946116233,,,,,,,,634080.0,,1,0,0,1,1
1789661120881.0,2.14,0.15343975,0.2000998,9.864711,0.0,-0.00015271618,0.00015271618,-49.875004,4.05,6.9,9.86793325881165,0.0002159732929498108,0.15334923915950457,0.2001717722757783,9.864620020932604,,,,,,,,634080.0,,1,0,0,1,1
1789661120891.0,2.15,0.15343975,0.2000998,9.864711,0.0,-0.00015271618,0.00015271618,-49.875004,4.05,6.9,9.86793325881165,0.0002159732929498108,0.15375982357790444,0.20056912733603052,9.865292732675472,,,,,,,,634080.0,,1,0,0,1,1
1789661120901.0,2.16,0.15433706,0.20129621,9.866505,0.0,-0.00015271618,0.00015271618,-49.875004,4.05,6.9,9.869764992504878,0.0002159732929498108,0.15409059642616907,0.2010014170419674,9.865946970021668,,,,,,,,634080.0,,1,0,0,1,1
1789661120911.0,2.17,0.15433706,0.20129621,9.866505,0.0,-0.00015271618,0.00015271618,-49.875004,4.05,6.9,9.869764992504878,0.0002159732929498108,0.1543046368009863,0.2012937087962171,9.866443348788764,,,,,,,,634080.0,,1,0,0,1,1
1789661120921.0,2.18,0.15433706,0.20129621,9.866505,0.0,-0.00015271618,0.00015271618,-49.875004,4.05,6.9,9.869764992504878,0.0002159732929498108,0.15446767516834858,0.20128358737319996,9.866759862611618,,,,,,,,634080.0,,1,0,0,1,1
1789661120931.0,2.19,0.15433706,0.20129621,9.866505,0.0,-0.00015271618,0.00015271618,-49.875004,4.05,6.9,9.869764992504878,0.0002159732929498108,0.15465839958626898,0.20090507634933874,9.866919092912074,,,,,,,,634080.0,,1,0,0,1,1
1789661120941.0,2.2,0.15523437,0.19950159,9.867104,-0.0009162971,0.00030543236,0.00015271618,-49.875004,4.05,6.9,9.870341429801597,0.000977860692347009,0.15489902680751266,0.20023372073105453,9.866935558055484,,,,,,,,634080.0,,1,0,0,1,1
1789661120951.0,2.21,0.15523437,0.19950159,9.867104,-0.0009162971,0.00030543236,0.00015271618,-49.875004,4.05,6.9,9.870341429801597,0.000977860692347009,0.15514459494309046,0.1994798388338772,9.866841770902157,,,,,,,,634080.0,,1,0,0,1,1
1789661120961.0,2.22,0.15523437,0.19950159,9.867104,-0.0009162971,0.00030543236,0.00015271618,-49.425003,3.9750001,7.2000003,9.870341429801597,0.000977860692347009,0.15532005667595086,0.19895138299757112,9.866763622043587,,,,,,,,634080.0,,1,0,0,1,1
1789661120971.0,2.23,0.15523437,0.19950159,9.867104,-0.0009162971,0.00030543236,0.00015271618,-49.425003,3.9750001,7.2000003,9.870341429801597,0.000977860692347009,0.15536349504405855,0.19898320395776306,9.866934017197774,,,,,,,,634080.0,,1,0,0,1,1
1789661120981.0,2.24,0.15523437,0.19950159,9.867104,-0.0009162971,0.00030543236,0.00015271618,-49.425003,3.9750001,7.2000003,9.870341429801597,0.000977860692347009,0.15525152654106184,0.19979227531390384,9.867568348833458,,,,,,,,634080.0,,1,0,0,1,1
1789661120991.0,2.25,0.15523437,0.19950159,9.867104,-0.0009162971,0.00030543236,0.00015271618,-49.425003,3.9750001,7.2000003,9.870341429801597,0.000977860692347009,0.15501349836079556,0.20127660278081222,9.868674172032913,,,,,,,,634080.0,,1,0,0,1,1
1789661121001.0,2.26,0.15463616,0.20398813,9.87159,-0.0009162971,0.00030543236,0.00015271618,-49.425003,3.9750001,7.2000003,9.874908233865286,0.000977860692347009,0.15473958645137806,0.20291246660791337,9.869982042666146,,,,,,,,634080.0,,1,0,0,1,1
1789661121011.0,2.27,0.15463616,0.20398813,9.87159,-0.0009162971,0.00030543236,0.00015271618,-49.425003,3.9750001,7.2000003,9.874908233865286,0.000977860692347009,0.15456747108275184,0.20392703899744374,9.871105501585195,,,,,,,,634080.0,,1,0,0,1,1
1789661121021.0,2.28,0.15463616,0.20398813,9.87159,-0.0009162971,0.00030543236,0.00015271618,-49.425003,3.9750001,7.2000003,9.874908233865286,0.000977860692347009,0.1546333910190805,0.20371901356544034,9.871809055082833,,,,,,,,634080.0,,1,0,0,1,1
1789661121031.0,2.29,0.15463616,0.20398813,9.87159,-0.0009162971,0.00030543236,0.00015271618,-49.425003,3.9750001,7.2000003,9.874908233865286,0.000977860692347009,0.1550009876601531,0.2022466256865474,9.87214096925292,,,,,,,,634080.0,,1,0,0,1,1
1789661121041.0,2.3,0.15613168,0.19770697,9.872487,-0.00015271618,0.00030543236,0.00015271618,-49.425003,3.9750001,7.2000003,9.875700720083369,0.0003740767164670295,0.15560434957650982,0.20007959027672254,9.87232434042676,,,,,,,,634080.0,,1,0,0,1,1
1789661121051.0,2.31,0.15613168,0.19770697,9.872487,-0.00015271618,0.00030543236,0.00015271618,-49.425003,3.9750001,7.2000003,9.875700720083369,0.0003740767164670295,0.15623706830973966,0.1980726605338286,9.872527126521689,,,,,,,,634080.0,,1,0,0,1,1
1789661121061.0,2.32,0.15613168,0.19770697,9.872487,-0.00015271618,0.00030543236,0.00015271618,-48.825,4.05,5.625,9.875700720083369,0.0003740767164670295,0.15660056878092737,0.19692214163964122,9.8727088364584,,,,,,,,634080.0,,1,0,0,1,1
1789661121071.0,2.33,0.15613168,0.19770697,9.872487,-0.00015271618,0.00030543236,0.00015271618,-48.825,4.05,5.625,9.875700720083369,0.0003740767164670295,0.1564180544717356,0.19690978859656671,9.872651041401266,,,,,,,,634080.0,,1,0,0,1,1
1789661121081.0,2.34,0.15613168,0.19770697,9.872487,-0.00015271618,0.00030543236,0.00015271618,-48.825,4.05,5.625,9.875700720083369,0.0003740767164670295,0.15560320493664653,0.19790328087368805,9.872144648079463,,,,,,,,634080.0,,1,0,0,1,1
1789661121091.0,2.35,0.15613168,0.19770697,9.872487,-0.00015271618,0.00030543236,0.00015271618,-48.825,4.05,5.625,9.875700720083369,0.0003740767164670295,0.1543987760171317,0.19948003317171384,9.871200636487556,,,,,,,,634080.0,,1,0,0,1,1
1789661121101.0,2.36,0.15194423,0.20249261,9.868897,-0.00015271618,0.00030543236,0.00015271618,-48.825,4.05,5.625,9.872143551566898,0.0003740767164670295,0.15332922139850147,0.20108017220848573,9.87011292500996,,,,,,,,634080.0,,1,0,0,1,1
1789661121111.0,2.37,0.15194423,0.20249261,9.868897,-0.00015271618,0.00030543236,0.00015271618,-48.825,4.05,5.625,9.872143551566898,0.0003740767164670295,0.1529053718319804,0.20220002679028448,9.869296444614985,,,,,,,,634080.0,,1,0,0,1,1
1789661121121.0,2.38,0.15194423,0.20249261,9.868897,-0.00015271618,0.00030543236,0.00015271618,-48.825,4.05,5.625,9.872143551566898,0.0003740767164670295,0.15327702588908546,0.20259239102519322,9.869019214708967,,,,,,,,634080.0,,1,0,0,1,1
1789661121131.0,2.39,0.15732808,0.20219351,9.869795,-0.00015271618,0.00030543236,0.00015271618,-48.825,4.05,5.625,9.873119450420297,0.0003740767164670295,0.15415225735267202,0.2023465277893549,9.86925214395734,,,,,,,,634080.0,,1,0,0,1,1
1789661121141.0,2.4,0.15493527,0.20129621,9.870094,0.0,0.00030543236,0.00015271618,-48.825,4.05,5.625,9.873362176628909,0.0003414837597440938,0.15505816731198893,0.2017805134912917,9.869741609696696,,,,,,,,634080.0,,1,0,0,1,1
1789661121151.0,2.41,0.15493527,0.20129621,9.870094,0.0,0.00030543236,0.00015271618,-48.825,4.05,5.625,9.873362176628909,0.0003414837597440938,0.15565532037533691,0.20123965121779513,9.870199127266686,,,,,,,,634080.0,,1,0,0,1,1
1789661121161.0,2.42,0.15493527,0.20129621,9.870094,0.0,0.00030543236,0.00015271618,-49.350002,3.6000001,6.7500005,9.873362176628909,0.0003414837597440938,0.15580116390434814,0.2009547893624449,9.870433142968057,,,,,,,,634080.0,,1,0,0,1,1
1789661121171.0,2.43,0.15493527,0.20129621,9.870094,0.0,0.00030543236,0.00015271618,-49.350002,3.6000001,6.7500005,9.873362176628909,0.0003414837597440938,0.15540738711090252,0.20101849048394985,9.87036309286537,,,,,,,,634080.0,,1,0,0,1,1
1789661121181.0,2.44,0.15493527,0.20129621,9.870094,0.0,0.00030543236,0.00015271618,-49.350002,3.6000001,6.7500005,9.873362176628909,0.0003414837597440938,0.1543862828924883,0.2014157843107385,9.86999124908646,,,,,,,,634080.0,,1,0,0,1,1
1789661121191.0,2.45,0.15493527,0.20129621,9.870094,0.0,0.00030543236,0.00015271618,-49.350002,3.6000001,6.7500005,9.873362176628909,0.0003414837597440938,0.1528213140889471,0.20203374387418252,9.869413208322767,,,,,,,,634080.0,,1,0,0,1,1
1789661121201.0,2.46,0.14985052,0.20309082,9.868599,0.0,0.00030543236,0.00015271618,-49.350002,3.6000001,6.7500005,9.871825934563146,0.0003414837597440938,0.15115291876073436,0.2026600606511686,9.86884551836394,,,,,,,,634080.0,,1,0,0,1,1
1789661121211.0,2.47,0.14985052,0.20309082,9.868599,0.0,0.00030543236,0.00015271618,-49.350002,3.6000001,6.7500005,9.871825934563146,0.0003414837597440938,0.15007873121881188,0.20303653235162766,9.868582840867672,,,,,,,,634080.0,,1,0,0,1,1
1789661121221.0,2.48,0.14985052,0.20309082,9.868599,0.0,0.00030543236,0.00015271618,-49.350002,3.6000001,6.7500005,9.871825934563146,0.0003414837597440938,0.15014747920484378,0.20297893376989543,9.868857157859335,,,,,,,,634080.0,,1,0,0,1,1
1789661121231.0,2.49,0.14985052,0.20309082,9.868599,0.0,0.00030543236,0.00015271618,-49.350002,3.6000001,6.7500005,9.871825934563146,0.0003414837597440938,0.1513648922569104,0.20248110382894002,9.869692121940897,,,,,,,,634080.0,,1,0,0,1,1
1789661121241.0,2.5,0.15523437,0.200698,9.872487,0.0,0.00030543236,0.00015271618,-49.350002,3.6000001,6.7500005,9.875746906538375,0.0003414837597440938,0.15316087599958966,0.20171246211320795,9.870881041887642,,,,,,,,634080.0,,1,0,0,1,1
1789661121251.0,2.51,0.15523437,0.200698,9.872487,0.0,0.00030543236,0.00015271618,-49.350002,3.6000001,6.7500005,9.875746906538375,0.0003414837597440938,0.15475934939210156,0.20091627773381635,9.872103913628374,,,,,,,,634080.0,,1,0,0,1,1
1789661121261.0,2.52,0.15523437,0.200698,9.872487,0.0,0.00030543236,0.00015271618,-49.800003,4.05,8.1,9.875746906538375,0.0003414837597440938,0.15564719002604063,0.20031273837288396,9.873052317483515,,,,,,,,634080.0,,1,0,0,1,1
1789661121271.0,2.53,0.15523437,0.200698,9.872487,0.0,0.00030543236,0.00015271618,-49.800003,4.05,8.1,9.875746906538375,0.0003414837597440938,0.15578527182324134,0.20008338053253918,9.873446284511896,,,,,,,,634080.0,,1,0,0,1,1
1789661121281.0,2.54,0.15523437,0.200698,9.872487,0.0,0.00030543236,0.00015271618,-49.800003,4.05,8.1,9.875746906538375,0.0003414837597440938,0.15547393422589542,0.2003813681138521,9.873014756216358,,,,,,,,634080.0,,1,0,0,1,1
1789661121291.0,2.55,0.15523437,0.200698,9.872487,0.0,0.00030543236,0.00015271618,-49.800003,4.05,8.1,9.875746906538375,0.0003414837597440938,0.15507623262782655,0.20125166627110827,9.87161224067913,,,,,,,,634080.0,,1,0,0,1,1
1789661121301.0,2.56,0.15523437,0.200698,9.872487,0.0,0.00030543236,0.00015271618,-49.800003,4.05,8.1,9.875746906538375,0.0003414837597440938,0.15483618495894402,0.20247421163305307,9.869459704452161,,,,,,,,634080.0,,1,0,0,1,1
1789661121311.0,2.57,0.15493527,0.20458634,9.864711,0.0,0.00030543236,0.00015271618,-49.800003,4.05,8.1,9.868048622799016,0.0003414837597440938,0.15485194137818636,0.20352516810203272,9.867226600112378,,,,,,,,634080.0,,1,0,0,1,1
1789661121321.0,2.58,0.15493527,0.20458634,9.864711,0.0,0.00030543236,0.00015271618,-49.800003,4.05,8.1,9.868048622799016,0.0003414837597440938,0.15511473875045514,0.20382012959055157,9.865719973460404,,,,,,,,634080.0,,1,0,0,1,1
1789661121331.0,2.59,0.15493527,0.20458634,9.864711,0.0,0.00030543236,0.00015271618,-49.800003,4.05,8.1,9.868048622799016,0.0003414837597440938,0.1555335814897712,0.20311644380471175,9.865360220111599,,,,,,,,634080.0,,1,0,0,1,1
1789661121341.0,2.6,0.15643078,0.19980069,9.867402,0.0,0.00030543236,0.00015271618,-49.800003,4.05,8.1,9.870664270162361,0.0003414837597440938,0.15595884357363676,0.2017226203181099,9.865918551202196,,,,,,,,634080.0,,1,0,0,1,1
1789661121351.0,2.61,0.15643078,0.19980069,9.867402,0.0,0.00030543236,0.00015271618,-49.800003,4.05,8.1,9.870664270162361,0.0003414837597440938,0.15625089574765097,0.20030201188955418,9.866766678755697,,,,,,,,634080.0,,1,0,0,1,1
1789661121361.0,2.62,0.15643078,0.19980069,9.867402,0.0,0.00030543236,0.00015271618,-49.2,3.825,6.3750005,9.870664270162361,0.0003414837597440938,0.15637391369570236,0.19943984755171218,9.867389556101914,,,,,,,,634080.0,,1,0,0,1,1
1789661121371.0,2.63,0.15643078,0.19980069,9.867402,0.0,0.00030543236,0.00015271618,-49.2,3.825,6.3750005,9.870664270162361,0.0003414837597440938,0.1564299048936039,0.19933547945961205,9.867700184902958,,,,,,,,634080.0,,1,0,0,1,1
1789661121381.0,2.64,0.15643078,0.19980069,9.867402,0.0,0.00030543236,0.00015271618,-49.2,3.825,6.3750005,9.870664270162361,0.0003414837597440938,0.15658021481717166,0.19980767119722387,9.86794596189633,,,,,,,,634080.0,,1,0,0,1,1
1789661121391.0,2.65,0.15643078,0.19980069,9.867402,0.0,0.00030543236,0.00015271618,-49.2,3.825,6.3750005,9.870664270162361,0.0003414837597440938,0.1569037858536392,0.20051948892955443,9.868385778694053,,,,,,,,634080.0,,1,0,0,1,1
1789661121401.0,2.66,0.1576272,0.20219351,9.870394,0.0,0.00030543236,0.00015271618,-49.2,3.825,6.3750005,9.87372301945431,0.0003414837597440938,0.1573082318156936,0.20122473969432858,9.869068405170216,,,,,,,,634080.0,,1,0,0,1,1
1789661121411.0,2.67,0.1576272,0.20219351,9.870394,0.0,0.00030543236,0.00015271618,-49.2,3.825,6.3750005,9.87372301945431,0.0003414837597440938,0.15757549548039204,0.20189405808780417,9.869869843538167,,,,,,,,634080.0,,1,0,0,1,1
1789661121421.0,2.68,0.1576272,0.20219351,9.870394,0.0,0.00030543236,0.00015271618,-49.2,3.825,6.3750005,9.87372301945431,0.0003414837597440938,0.15751510267702407,0.20266293591888163,9.870666070491016,,,,,,,,634080.0,,1,0,0,1,1
1789661121431.0,2.69,0.1576272,0.20219351,9.870394,0.0,0.00030543236,0.00015271618,-49.2,3.825,6.3750005,9.87372301945431,0.0003414837597440938,0.15710675056782736,0.20364453960090043,9.871421119152593,,,,,,,,634080.0,,1,0,0,1,1
1789661121441.0,2.7,0.15583257,0.20608185,9.8727865,0.0,0.00030543236,0.0,-49.2,3.825,6.3750005,9.876166604171605,0.00030543236,0.1565195551167539,0.20476275186289503,9.872126154845795,,,,,,,,634080.0,,1,0,0,1,1
1789661121451.0,2.71,0.15583257,0.20608185,9.8727865,0.0,0.00030543236,0.0,-49.2,3.825,6.3750005,9.876166604171605,0.00030543236,0.1559962845475034,0.20575839995554532,9.87270734465298,,,,,,,,634080.0,,1,0,0,1,1
1789661121461.0,2.72,0.15583257,0.20608185,9.8727865,0.0,0.00030543236,0.0,-48.750004,3.825,5.925,9.876166604171605,0.00030543236,0.15570206997508035,0.20635477170120448,9.873022042402612,,,,,,,,634080.0,,1,0,0,1,1
1789661121471.0,2.73,0.15583257,0.20608185,9.8727865,0.0,0.00030543236,0.0,-48.750004,3.825,5.925,9.876166604171605,0.00030543236,0.15565707151611985,0.20642295786839732,9.872946126999478,,,,,,,,634080.0,,1,0,0,1,1
1789661121481.0,2.74,0.15583257,0.20608185,9.8727865,0.0,0.00030543236,0.0,-48.750004,3.825,5.925,9.876166604171605,0.00030543236,0.15578564845156762,0.20602887724516022,9.87248025304059,,,,,,,,634080.0,,1,0,0,1,1
1789661121491.0,2.75,0.15583257,0.20608185,9.8727865,0.0,0.00030543236,0.0,-48.750004,3.825,5.925,9.876166604171605,0.00030543236,0.15601466288904348,0.20537432414619408,9.871793195492428,,,,,,,,634080.0,,1,0,0,1,1
1789661121501.0,2.76,0.15672988,0.20398813,9.870094,0.0,0.00030543236,0.0,-48.750004,3.825,5.925,9.873445750157424,0.00030543236,0.15633124426294134,0.20469525804953814,9.8711408256766,,,,,,,,634080.0,,1,0,0,1,1
1789661121511.0,2.77,0.15672988,0.20398813,9.870094,0.0,0.00030543236,0.0,-48.750004,3.825,5.925,9.873445750157424,0.00030543236,0.15675905200528129,0.2041621264452101,9.870681517303568,,,,,,,,634080.0,,1,0,0,1,1
1789661121521.0,2.78,0.15672988,0.20398813,9.870094,0.0,0.00030543236,0.0,-48.750004,3.825,5.925,9.873445750157424,0.00030543236,0.15727999289894048,0.2038245787679683,9.870338551124762,,,,,,,,634080.0,,1,0,0,1,1
1789661121531.0,2.79,0.15672988,0.20398813,9.870094,0.0,0.00030543236,0.0,-48.750004,3.825,5.925,9.873445750157424,0.00030543236,0.15778163470425158,0.20363508256501445,9.869876417615966,,,,,,,,634080.0,,1,0,0,1,1
1789661121541.0,2.8,0.16091733,0.20368902,9.872487,0.0,0.00030543236,0.0,-48.750004,3.825,5.925,9.875899106872847,0.00030543236,0.15810111298956148,0.20352430072089825,9.86915229280469,,,,,,,,634080.0,,1,0,0,1,1
1789661121551.0,2.81,0.15702899,0.20309082,9.865907,0.0,0.00030543236,-0.0006108647,-48.750004,3.825,5.925,9.869246420954221,0.0006829675015996439,0.15813141442957404,0.20344712025003087,9.868263523695466,,,,,,,,634080.0,,1,0,0,1,1
1789661121561.0,2.82,0.15702899,0.20309082,9.865907,0.0,0.00030543236,-0.0006108647,-49.350002,3.825,6.9750004,9.869246420954221,0.0006829675015996439,0.1578646596758907,0.20335857725288053,9.867376272534623,,,,,,,,634080.0,,1,0,0,1,1
1789661121571.0,2.83,0.15702899,0.20309082,9.865907,0.0,0.00030543236,-0.0006108647,-49.350002,3.825,6.9750004,9.869246420954221,0.0006829675015996439,0.15732704405191095,0.20317465277763425,9.866412087910009,,,,,,,,634080.0,,1,0,0,1,1
1789661121581.0,2.84,0.15702899,0.20309082,9.865907,0.0,0.00030543236,-0.0006108647,-49.350002,3.825,6.9750004,9.869246420954221,0.0006829675015996439,0.15652357051675309,0.20279995115454508,9.865026995084762,,,,,,,,634080.0,,1,0,0,1,1
1789661121591.0,2.85,0.15702899,0.20309082,9.865907,0.0,0.00030543236,-0.0006108647,-49.350002,3.825,6.9750004,9.869246420954221,0.0006829675015996439,0.15549749455858902,0.20221868699395826,9.86303977121522,,,,,,,,634080.0,,1,0,0,1,1
1789661121601.0,2.86,0.15314065,0.200698,9.859626,0.0,0.00030543236,-0.0006108647,-49.350002,3.825,6.9750004,9.862857426008064,0.0006829675015996439,0.15441901767173663,0.20154765136044048,9.860912119652046,,,,,,,,634080.0,,1,0,0,1,1
1789661121611.0,2.87,0.15314065,0.200698,9.859626,0.0,0.00030543236,-0.0006108647,-49.350002,3.825,6.9750004,9.862857426008064,0.0006829675015996439,0.1535428322289819,0.20097013740667355,9.859712937397724,,,,,,,,634080.0,,1,0,0,1,1
1789661121621.0,2.88,0.15314065,0.200698,9.859626,0.0,0.00030543236,-0.0006108647,-49.350002,3.825,6.9750004,9.862857426008064,0.0006829675015996439,0.15303830204517296,0.20059906914571982,9.86045174747645,,,,,,,,634080.0,,1,0,0,1,1
1789661121631.0,2.89,0.15314065,0.200698,9.859626,0.0,0.00030543236,-0.0006108647,-49.350002,3.825,6.9750004,9.862857426008064,0.0006829675015996439,0.152866953803649,0.200401075894895,9.86328877022644,,,,,,,,634080.0,,1,0,0,1,1
1789661121641.0,2.9,0.15284155,0.2000998,9.871889,0.0,0.00030543236,0.00015271618,-49.350002,3.825,6.9750004,9.875099639886548,0.0003414837597440938,0.15283538555705545,0.200251127988368,9.867297042403308,,,,,,,,634080.0,,1,0,0,1,1
1789661121651.0,2.91,0.15284155,0.2000998,9.871889,0.0,0.00030543236,0.00015271618,-49.350002,3.825,6.9750004,9.875099639886548,0.0003414837597440938,0.15277180162948809,0.20006338690115008,9.870986569025982,,,,,,,,634080.0,,1,0,0,1,1
1789661121661.0,2.92,0.15284155,0.2000998,9.871889,0.0,0.00030543236,0.00015271618,-49.125004,4.125,5.925,9.875099639886548,0.0003414837597440938,0.15267367174131363,0.19988965953085583,9.873139800992382,,,,,,,,634080.0,,1,0,0,1,1
1789661121671.0,2.93,0.15284155,0.2000998,9.871889,0.0,0.00030543236,0.00015271618,-49.125004,4.125,5.925,9.875099639886548,0.0003414837597440938,0.15271354785288888,0.19990953878529225,9.873319155554494,,,,,,,,634080.0,,1,0,0,1,1
1789661121681.0,2.94,0.15284155,0.2000998,9.871889,0.0,0.00030543236,0.00015271618,-49.125004,4.125,5.925,9.875099639886548,0.0003414837597440938,0.15309684538869592,0.2003045393002757,9.871840412534636,,,,,,,,634080.0,,1,0,0,1,1
1789661121691.0,2.95,0.15284155,0.2000998,9.871889,0.0,0.00030543236,0.00015271618,-49.125004,4.125,5.925,9.875099639886548,0.0003414837597440938,0.15387088575538976,0.20108747942649377,9.869477277040938,,,,,,,,634080.0,,1,0,0,1,1
1789661121701.0,2.96,0.15583257,0.20279172,9.865608,0.0,0.00030543236,0.00015271618,-49.125004,4.125,5.925,9.86892240729642,0.0003414837597440938,0.15483403943022836,0.20201642666141448,9.867164380614076,,,,,,,,634080.0,,1,0,0,1,1
1789661121711.0,2.97,0.15583257,0.20279172,9.865608,0.0,0.00030543236,0.00015271618,-49.125004,4.125,5.925,9.86892240729642,0.0003414837597440938,0.15562889755473347,0.20268789713099247,9.865720094550742,,,,,,,,634080.0,,1,0,0,1,1
1789661121721.0,2.98,0.15583257,0.20279172,9.865608,0.0,0.00030543236,0.00015271618,-49.125004,4.125,5.925,9.86892240729642,0.0003414837597440938,0.1559507128744883,0.20276590365664565,9.865568381082175,,,,,,,,634080.0,,1,0,0,1,1
1789661121731.0,2.99,0.15583257,0.20279172,9.865608,0.0,0.00030543236,0.00015271618,-49.125004,4.125,5.925,9.86892240729642,0.0003414837597440938,0.15570897642204706,0.20218342604693992,9.866581736778656,,,,,,,,634080.0,,1,0,0,1,1
1789661121741.0,3.0,0.15433706,0.2000998,9.869795,0.0,0.00030543236,0.00015271618,-49.125004,4.125,5.925,9.873029585698328,0.0003414837597440938,0.15504666139245413,0.20117689165528568,9.868182875885246,,,,,,,,634080.0,,1,0,0,1,1
1789661121751.0,3.01,0.15433706,0.2000998,9.869795,0.0,0.00030543236,0.00015271618,-49.125004,4.125,5.925,9.873029585698328,0.0003414837597440938,0.15426105275012886,0.20015683355541578,9.869658681044651,,,,,,,,634080.0,,1,0,0,1,1
1789661121761.0,3.02,0.15433706,0.2000998,9.869795,0.0,0.00030543236,0.00015271618,-48.825,3.825,6.4500003,9.873029585698328,0.0003414837597440938,0.15371951865787337,0.19953255547510812,9.870473146668818,,,,,,,,634080.0,,1,0,0,1,1
1789661121771.0,3.03,0.15433706,0.2000998,9.869795,0.0,0.00030543236,0.00015271618,-48.825,3.825,6.4500003,9.873029585698328,0.0003414837597440938,0.15378444704984576,0.19958721076226107,9.870406644898626,,,,,,,,634080.0,,1,0,0,1,1
1789661121781.0,3.04,0.15433706,0.2000998,9.869795,0.0,0.00030543236,0.00015271618,-48.825,3.825,6.4500003,9.873029585698328,0.0003414837597440938,0.15468068047709224,0.2003974380742977,9.869535046620193,,,,,,,,634080.0,,1,0,0,1,1
1789661121791.0,3.05,0.15433706,0.2000998,9.869795,0.0,0.00030543236,0.00015271618,-48.825,3.825,6.4500003,9.873029585698328,0.0003414837597440938,0.15630076837169507,0.20176943908963882,9.868159330986694,,,,,,,,634080.0,,1,0,0,1,1
1789661121801.0,3.06,0.1594218,0.20458634,9.865309,0.0,0.00030543236,0.00015271618,-48.825,3.825,6.4500003,9.86871787753155,0.0003414837597440938,0.15810425809537673,0.20325239949248297,9.866715717941727,,,,,,,,634080.0,,1,0,0,1,1
1789661121811.0,3.07,0.1594218,0.20458634,9.865309,0.0,0.00030543236,0.00015271618,-48.825,3.825,6.4500003,9.86871787753155,0.0003414837597440938,0.15929577508466478,0.20431544152862902,9.86562248140422,,,,,,,,634080.0,,1,0,0,1,1
1789661121821.0,3.08,0.1594218,0.20458634,9.865309,0.0,0.00030543236,0.00015271618,-48.825,3.825,6.4500003,9.86871787753155,0.0003414837597440938,0.15924943386697316,0.20462980737535094,9.86509941968561,,,,,,,,634080.0,,1,0,0,1,1
1789661121831.0,3.09,0.1594218,0.20458634,9.865309,0.0,0.00030543236,0.00015271618,-48.825,3.825,6.4500003,9.86871787753155,0.0003414837597440938,0.15789275103419242,0.20425062457348592,9.86509126840064,,,,,,,,634080.0,,1,0,0,1,1
1789661121841.0,3.1,0.15343975,0.20279172,9.865608,0.0,0.00030543236,0.00015271618,-48.825,3.825,6.4500003,9.868884914125031,0.0003414837597440938,0.15576083396427534,0.20354754249996931,9.86535882964464,,,,,,,,634080.0,,1,0,0,1,1
1789661121851.0,3.11,0.15343975,0.20279172,9.865608,0.0,0.00030543236,0.00015271618,-48.825,3.825,6.4500003,9.868884914125031,0.0003414837597440938,0.15369992321542067,0.2029416565852415,9.865648645335135,,,,,,,,634080.0,,1,0,0,1,1
1789661121861.0,3.12,0.15343975,0.20279172,9.865608,0.0,0.00030543236,0.00015271618,-49.800003,3.9,7.3500004,9.868884914125031,0.0003414837597440938,0.15246960194215622,0.2026533208729406,9.865805342719948,,,,,,,,634080.0,,1,0,0,1,1
1789661121871.0,3.13,0.15343975,0.20279172,9.865608,0.0,0.00030543236,0.00015271618,-49.800003,3.9,7.3500004,9.868884914125031,0.0003414837597440938,0.15249404232650948,0.2026309088336047,9.865780032477934,,,,,,,,634080.0,,1,0,0,1,1
1789661121881.0,3.14,0.15343975,0.20279172,9.865608,0.0,0.00030543236,0.00015271618,-49.800003,3.9,7.3500004,9.868884914125031,0.0003414837597440938,0.15378604722416928,0.20267186294473552,9.865590029061114,,,,,,,,634080.0,,1,0,0,1,1
1789661121891.0,3.15,0.15343975,0.20279172,9.865608,0.0,0.00030543236,0.00015271618,-49.800003,3.9,7.3500004,9.868884914125031,0.0003414837597440938,0.15593891968528598,0.20261060966312064,9.865299482832905,,,,,,,,634080.0,,1,0,0,1,1
1789661121901.0,3.16,0.16002001,0.20219351,9.865009,0.0,0.00030543236,0.00015271618,-49.800003,3.9,7.3500004,9.868378346474538,0.0003414837597440938,0.15819860906134497,0.2024313042976731,9.865027626861641,,,,,,,,634080.0,,1,0,0,1,1
1789661121911.0,3.17,0.16002001,0.20219351,9.865009,0.0,0.00030543236,0.00015271618,-49.800003,3.9,7.3500004,9.868378346474538,0.0003414837597440938,0.15972715297308726,0.20224933414617255,9.86493478117971,,,,,,,,634080.0,,1,0,0,1,1
1789661121921.0,3.18,0.16002001,0.20219351,9.865009,0.0,0.00030543236,0.00015271618,-49.800003,3.9,7.3500004,9.868378346474538,0.0003414837597440938,0.16000889092342746,0.20220699132214598,9.86515092971787,,,,,,,,634080.0,,1,0,0,1,1
1789661121931.0,3.19,0.16002001,0.20219351,9.865009,0.0,0.00030543236,0.00015271618,-49.800003,3.9,7.3500004,9.868378346474538,0.0003414837597440938,0.15912753674039057,0.20237271531905476,9.86568161412643,,,,,,,,634080.0,,1,0,0,1,1
1789661121941.0,3.2,0.15613168,0.20309082,9.867104,0.0,0.00030543236,-0.00045814854,-49.800003,3.9,7.3500004,9.870428781440241,0.0005506260175829881,0.15768165243589274,0.20270480455036924,9.866373291742015,,,,,,,,634080.0,,1,0,0,1,1
1789661121951.0,3.21,0.15613168,0.20309082,9.867104,0.0,0.00030543236,-0.00045814854,-49.800003,3.9,7.3500004,9.870428781440241,0.0005506260175829881,0.15639519778717703,0.20307823468539138,9.866983722015664,,,,,,,,634080.0,,1,0,0,1,1
1789661121961.0,3.22,0.15613168,0.20309082,9.867104,0.0,0.00030543236,-0.00045814854,-50.025,3.7500002,7.5750003,9.870428781440241,0.0005506260175829881,0.1557193345146351,0.20333447401774155,9.86731088292726,,,,,,,,634080.0,,1,0,0,1,1
1789661121971.0,3.23,0.15613168,0.20309082,9.867104,0.0,0.00030543236,-0.00045814854,-50.025,3.7500002,7.5750003,9.870428781440241,0.0005506260175829881,0.1556895541044559,0.20332871626885515,9.86728692795706,,,,,,,,634080.0,,1,0,0,1,1
1789661121981.0,3.24,0.15613168,0.20309082,9.867104,0.0,0.00030543236,-0.00045814854,-50.025,3.7500002,7.5750003,9.870428781440241,0.0005506260175829881,0.15605849739731759,0.20298533253695547,9.86698766897768,,,,,,,,634080.0,,1,0,0,1,1
1789661121991.0,3.25,0.15613168,0.20309082,9.867104,0.0,0.00030543236,-0.00045814854,-50.025,3.7500002,7.5750003,9.870428781440241,0.0005506260175829881,0.1565239969962654,0.20236589110185954,9.866572575758092,,,,,,,,634080.0,,1,0,0,1,1
1789661122001.0,3.26,0.15702899,0.20129621,9.865608,0.0,0.00030543236,-0.00045814854,-50.025,3.7500002,7.5750003,9.868910754360117,0.0005506260175829881,0.15687949635980863,0.20169975081860403,9.86618788879906,,,,,,,,634080.0,,1,0,0,1,1
1789661122011.0,3.27,0.15702899,0.20129621,9.865608,0.0,0.00030543236,-0.00045814854,-50.025,3.7500002,7.5750003,9.868910754360117,0.0005506260175829881,0.15704776271178564,0.20130873720688797,9.86586837401214,,,,,,,,634080.0,,1,0,0,1,1
1789661122021.0,3.28,0.15702899,0.20129621,9.865608,0.0,0.00030543236,-0.00045814854,-50.025,3.7500002,7.5750003,9.868910754360117,0.0005506260175829881,0.15704882919316202,0.20143366420722042,9.865497550765358,,,,,,,,634080.0,,1,0,0,1,1
1789661122031.0,3.29,0.15702899,0.20129621,9.865608,0.0,0.00030543236,-0.00045814854,-50.025,3.7500002,7.5750003,9.868910754360117,0.0005506260175829881,0.15695226048886673,0.20207597707151073,9.864881243920848,,,,,,,,634080.0,,1,0,0,1,1
1789661122041.0,3.3,0.15672988,0.20398813,9.862916,0.0,0.00030543236,-0.0009162971,-50.025,3.7500002,7.5750003,9.866270188653953,0.000965861947694172,0.15683383699357922,0.20298310861398092,9.863916984914184,,,,,,,,634080.0,,1,0,0,1,1
1789661122051.0,3.31,0.15672988,0.20398813,9.862916,0.0,0.00030543236,-0.0009162971,-50.025,3.7500002,7.5750003,9.866270188653953,0.000965861947694172,0.1567444481831826,0.20379769680060114,9.862767297120069,,,,,,,,634080.0,,1,0,0,1,1
1789661122061.0,3.32,0.15672988,0.20398813,9.862916,0.0,0.00030543236,-0.0009162971,-49.425003,3.9750001,7.5750003,9.866270188653953,0.000965861947694172,0.15669889929585332,0.20425458613527878,9.861927321811345,,,,,,,,634080.0,,1,0,0,1,1
1789661122071.0,3.33,0.15672988,0.20398813,9.862916,0.0,0.00030543236,-0.0009162971,-49.425003,3.9750001,7.5750003,9.866270188653953,0.000965861947694172,0.15668597688813785,0.20428251452933704,9.86208862197223,,,,,,,,634080.0,,1,0,0,1,1
1789661122081.0,3.34,0.15672988,0.20398813,9.862916,0.0,0.00030543236,-0.0009162971,-49.425003,3.9750001,7.5750003,9.866270188653953,0.000965861947694172,0.1566870784950968,0.20397276225130642,9.863759354473274,,,,,,,,634080.0,,1,0,0,1,1
1789661122091.0,3.35,0.15672988,0.20398813,9.862916,0.0,0.00030543236,-0.0009162971,-49.425003,3.9750001,7.5750003,9.866270188653953,0.000965861947694172,0.15668381676819546,0.20348664003164033,9.86679739141999,,,,,,,,634080.0,,1,0,0,1,1
1789661122101.0,3.36,0.15643078,0.20249261,9.873384,0.0,0.00030543236,-0.0009162971,-49.425003,3.9750001,7.5750003,9.876699117493253,0.000965861947694172,0.15664793012621775,0.20297935954552956,9.870241215609267,,,,,,,,634080.0,,1,0,0,1,1
1789661122111.0,3.37,0.15643078,0.20249261,9.873384,0.0,0.00030543236,-0.0009162971,-49.425003,3.9750001,7.5750003,9.876699117493253,0.000965861947694172,0.15653178914227345,0.2025633230829105,9.872732793037386,,,,,,,,634080.0,,1,0,0,1,1
1789661122121.0,3.38,0.15643078,0.20249261,9.873384,0.0,0.00030543236,-0.0009162971,-49.425003,3.9750001,7.5750003,9.876699117493253,0.000965861947694172,0.15628658778728471,0.20230540324644491,9.873331782923692,,,,,,,,634080.0,,1,0,0,1,1
1789661122131.0,3.39,0.15643078,0.20249261,9.873384,0.0,0.00030543236,-0.0009162971,-49.425003,3.9750001,7.5750003,9.876699117493253,0.000965861947694172,0.15590701819238706,0.2022450072051952,9.872103537777312,,,,,,,,634080.0,,1,0,0,1,1
1789661122141.0,3.4,0.15493527,0.20249261,9.867702,-0.0006108647,-0.00030543236,0.00015271618,-49.425003,3.9750001,7.5750003,9.870995438951361,0.00069983343723707,0.15546036726924534,0.20239781089989786,9.870010966233552,,,,,,,,634080.0,,1,0,0,1,1
1789661122151.0,3.41,0.15493527,0.20249261,9.867702,-0.0006108647,-0.00030543236,0.00015271618,-49.425003,3.9750001,7.5750003,9.870995438951361,0.00069983343723707,0.15506187016664458,0.20270832920626897,9.8682162408794,,,,,,,,634080.0,,1,0,0,1,1
1789661122161.0,3.42,0.15493527,0.20249261,9.867702,-0.0006108647,-0.00030543236,0.00015271618,-49.425003,4.125,7.05,9.870995438951361,0.00069983343723707,0.1548149568728839,0.20297741729097438,9.8673504305652,,,,,,,,634080.0,,1,0,0,1,1
1789661122171.0,3.43,0.15493527,0.20249261,9.867702,-0.0006108647,-0.00030543236,0.00015271618,-49.425003,4.125,7.05,9.870995438951361,0.00069983343723707,0.1547731565828536,0.20287009798626482,9.867270949362,,,,,,,,634080.0,,1,0,0,1,1
1789661122181.0,3.44,0.15493527,0.20249261,9.867702,-0.0006108647,-0.00030543236,0.00015271618,-49.425003,4.125,7.05,9.870995438951361,0.00069983343723707,0.1549492971620426,0.20209282860460406,9.867393763272494,,,,,,,,634080.0,,1,0,0,1,1
1789661122191.0,3.45,0.15493527,0.20249261,9.867702,-0.0006108647,-0.00030543236,0.00015271618,-49.425003,4.125,7.05,9.870995438951361,0.00069983343723707,0.15534405930876294,0.20067425526584984,9.867261570955174,,,,,,,,634080.0,,1,0,0,1,1
1789661122201.0,3.46,0.15672988,0.19800608,9.866804,-0.0006108647,-0.00030543236,0.00015271618,-49.425003,4.125,7.05,9.870035047426011,0.00069983343723707,0.15595302520813273,0.19911224174035236,9.866907626446677,,,,,,,,634080.0,,1,0,0,1,1
1789661122211.0,3.47,0.15672988,0.19800608,9.866804,-0.0006108647,-0.00030543236,0.00015271618,-49.425003,4.125,7.05,9.870035047426011,0.00069983343723707,0.1567333641778471,0.19817574143081412,9.866788617119566,,,,,,,,634080.0,,1,0,0,1,1
1789661122221.0,3.48,0.15672988,0.19800608,9.866804,-0.0006108647,-0.00030543236,0.00015271618,-49.425003,4.125,7.05,9.870035047426011,0.00069983343723707,0.15754737556755394,0.1984259131310995,9.867380034601386,,,,,,,,634080.0,,1,0,0,1,1
1789661122231.0,3.49,0.15672988,0.19800608,9.866804,-0.0006108647,-0.00030543236,0.00015271618,-49.425003,4.125,7.05,9.870035047426011,0.00069983343723707,0.15815198178526257,0.19980777405869257,9.868757004890643,,,,,,,,634080.0,,1,0,0,1,1
1789661122241.0,3.5,0.16181463,0.20428723,9.873085,-0.0006108647,-0.00030543236,0.00015271618,-49.425003,4.125,7.05,9.876523916036861,0.00069983343723707,0.15831032658663627,0.20165933926020585,9.870490556476755,,,,,,,,634080.0,,1,0,0,1,1
1789661122251.0,3.51,0.15672988,0.20338993,9.872188,0.0,0.00030543236,0.00015271618,-49.425003,4.125,7.05,9.875526701207091,0.0003414837597440938,0.15797920556897269,0.20315454056780444,9.871937480756321,,,,,,,,634080.0,,1,0,0,1,1
1789661122261.0,3.52,0.15672988,0.20338993,9.872188,0.0,0.00030543236,0.00015271618,-49.800003,3.9,6.6000004,9.875526701207091,0.0003414837597440938,0.15738468808278186,0.20382922359205363,9.872666997787844,,,,,,,,634080.0,,1,0,0,1,1
1789661122271.0,3.53,0.15672988,0.20338993,9.872188,0.0,0.00030543236,0.00015271618,-49.800003,3.9,6.6000004,9.875526701207091,0.0003414837597440938,0.15687215967486343,0.20378696382505357,9.872672317687991,,,,,,,,634080.0,,1,0,0,1,1
1789661122281.0,3.54,0.15672988,0.20338993,9.872188,0.0,0.00030543236,0.00015271618,-49.800003,3.9,6.6000004,9.875526701207091,0.0003414837597440938,0.1566630287282071,0.20348331724878227,9.872255089452334,,,,,,,,634080.0,,1,0,0,1,1
1789661122291.0,3.55,0.15672988,0.20338993,9.872188,0.0,0.00030543236,0.00015271618,-49.800003,3.9,6.6000004,9.875526701207091,0.0003414837597440938,0.15675158227253658,0.2033199692311137,9.871757188755161,,,,,,,,634080.0,,1,0,0,1,1
1789661122301.0,3.56,0.1576272,0.20309082,9.870992,0.0,0.00030543236,0.00015271618,-49.800003,3.9,6.6000004,9.874339232546758,0.0003414837597440938,0.1570140738410792,0.2033557692823168,9.871364346638975,,,,,,,,634080.0,,1,0,0,1,1
1789661122311.0,3.57,0.1576272,0.20309082,9.870992,0.0,0.00030543236,0.00015271618,-49.800003,3.9,6.6000004,9.874339232546758,0.0003414837597440938,0.15738988817545024,0.20329547121647748,9.87107137379829,,,,,,,,634080.0,,1,0,0,1,1
1789661122321.0,3.58,0.1576272,0.20309082,9.870992,0.0,0.00030543236,0.00015271618,-49.800003,3.9,6.6000004,9.874339232546758,0.0003414837597440938,0.15794655684825437,0.20272921289364715,9.870774492454528,,,,,,,,634080.0,,1,0,0,1,1
1789661122331.0,3.59,0.1576272,0.20309082,9.870992,0.0,0.00030543236,0.00015271618,-49.800003,3.9,6.6000004,9.874339232546758,0.0003414837597440938,0.1587722898563986,0.20145599551257606,9.870404097468235,,,,,,,,634080.0,,1,0,0,1,1
1789661122341.0,3.6,0.16091733,0.19770697,9.869496,0.0,0.00030543236,0.00015271618,-49.800003,3.9,6.6000004,9.872787535802486,0.0003414837597440938,0.15981265092011548,0.19967407403247578,9.870000696806141,,,,,,,,634080.0,,1,0,0,1,1
1789661122351.0,3.61,0.16091733,0.19770697,9.869496,0.0,0.00030543236,0.00015271618,-49.800003,3.9,6.6000004,9.872787535802486,0.0003414837597440938,0.16081219614186648,0.19791987418671358,9.869677922765563,,,,,,,,634080.0,,1,0,0,1,1
1789661122361.0,3.62,0.16091733,0.19770697,9.869496,0.0,0.00030543236,0.00015271618,-49.65,3.7500002,7.3500004,9.872787535802486,0.0003414837597440938,0.16140900903560101,0.19683032386560756,9.869512149270623,,,,,,,,634080.0,,1,0,0,1,1
1789661122371.0,3.63,0.16091733,0.19770697,9.869496,0.0,0.00030543236,0.00015271618,-49.65,3.7500002,7.3500004,9.872787535802486,0.0003414837597440938,0.16131179512930716,0.19688807771483408,9.869466875737643,,,,,,,,634080.0,,1,0,0,1,1
1789661122381.0,3.64,0.16091733,0.19770697,9.869496,0.0,0.00030543236,0.00015271618,-49.65,3.7500002,7.3500004,9.872787535802486,0.0003414837597440938,0.16047185646907722,0.19822159922180163,9.869425242323478,,,,,,,,634080.0,,1,0,0,1,1
1789661122391.0,3.65,0.16091733,0.19770697,9.869496,0.0,0.00030543236,0.00015271618,-49.65,3.7500002,7.3500004,9.872787535802486,0.0003414837597440938,0.15916941673794652,0.20047997323940805,9.869303164790505,,,,,,,,634080.0,,1,0,0,1,1
1789661122401.0,3.66,0.15643078,0.20518455,9.869197,0.0,0.00030543236,0.00015271618,-49.65,3.7500002,7.3500004,9.872569104002215,0.0003414837597440938,0.15791470367453225,0.20289028244910734,9.86914596726379,,,,,,,,634080.0,,1,0,0,1,1
1789661122411.0,3.67,0.15643078,0.20518455,9.869197,0.0,0.00030543236,0.00015271618,-49.65,3.7500002,7.3500004,9.872569104002215,0.0003414837597440938,0.1571404991568648,0.20460005084210423,9.869122455016782,,,,,,,,634080.0,,1,0,0,1,1
1789661122421.0,3.68,0.15643078,0.20518455,9.869197,0.0,0.00030543236,0.00015271618,-49.65,3.7500002,7.3500004,9.872569104002215,0.0003414837597440938,0.1568785592746722,0.2051545257287784,9.869406626189672,,,,,,,,634080.0,,1,0,0,1,1
1789661122431.0,3.69,0.15643078,0.20518455,9.869197,0.0,0.00030543236,0.00015271618,-49.65,3.7500002,7.3500004,9.872569104002215,0.0003414837597440938,0.1567284911784936,0.20474200138777274,9.870029897208791,,,,,,,,634080.0,,1,0,0,1,1
1789661122441.0,3.7,0.16002001,0.20189442,9.87159,0.0,0.00030543236,0.00015271618,-49.65,3.7500002,7.3500004,9.874950981575935,0.0003414837597440938,0.15620953124509931,0.2039918651010009,9.87082748158379,,,,,,,,634080.0,,1,0,0,1,1
1789661122451.0,3.71,0.15314065,0.20398813,9.871889,0.0,0.00015271618,-0.0009162971,-49.65,3.7500002,7.3500004,9.87518382837425,0.0009289362772021568,0.15519656245428565,0.20350178051255546,9.871536522508666,,,,,,,,634080.0,,1,0,0,1,1
1789661122461.0,3.72,0.15314065,0.20398813,9.871889,0.0,0.00015271618,-0.0009162971,-49.65,3.6000001,6.9750004,9.87518382837425,0.0009289362772021568,0.15402577230237322,0.20348313942236398,9.871967262232548,,,,,,,,634080.0,,1,0,0,1,1
1789661122471.0,3.73,0.15314065,0.20398813,9.871889,0.0,0.00015271618,-0.0009162971,-49.65,3.6000001,6.9750004,9.87518382837425,0.0009289362772021568,0.15318599789321483,0.20375509872490252,9.87209758209368,,,,,,,,634080.0,,1,0,0,1,1
1789661122481.0,3.74,0.15314065,0.20398813,9.871889,0.0,0.00015271618,-0.0009162971,-49.65,3.6000001,6.9750004,9.87518382837425,0.0009289362772021568,0.15292203880997227,0.20399500144225335,9.872019656405307,,,,,,,,634080.0,,1,0,0,1,1
1789661122491.0,3.75,0.15314065,0.20398813,9.871889,0.0,0.00015271618,-0.0009162971,-49.65,3.6000001,6.9750004,9.87518382837425,0.0009289362772021568,0.15311159084829112,0.20399193348033504,9.871809482208608,,,,,,,,634080.0,,1,0,0,1,1
1789661122501.0,3.76,0.15403795,0.20338993,9.870992,0.0,0.00015271618,-0.0009162971,-49.65,3.6000001,6.9750004,9.874288744903584,0.0009289362772021568,0.15346473213968703,0.20374058439391743,9.871451718368847,,,,,,,,634080.0,,1,0,0,1,1
1789661122511.0,3.77,0.15403795,0.20338993,9.870992,0.0,0.00015271618,-0.0009162971,-49.65,3.6000001,6.9750004,9.874288744903584,0.0009289362772021568,0.15381208738325478,0.2033878339579155,9.870895399278963,,,,,,,,634080.0,,1,0,0,1,1
1789661122521.0,3.78,0.15403795,0.20338993,9.870992,0.0,0.00015271618,-0.0009162971,-49.65,3.6000001,6.9750004,9.874288744903584,0.0009289362772021568,0.1542234547744841,0.20312965345038353,9.870196673020567,,,,,,,,634080.0,,1,0,0,1,1
1789661122531.0,3.79,0.15403795,0.20338993,9.870992,0.0,0.00015271618,-0.0009162971,-49.65,3.6000001,6.9750004,9.874288744903584,0.0009289362772021568,0.15488024716403934,0.2031248803062351,9.869599552734835,,,,,,,,634080.0,,1,0,0,1,1
1789661122541.0,3.8,0.15583257,0.20279172,9.866206,0.0,0.00015271618,-0.0009162971,-49.65,3.6000001,6.9750004,9.869520206474546,0.0009289362772021568,0.15584012960207602,0.20343021096445885,9.869416912898451,,,,,,,,634080.0,,1,0,0,1,1
1789661122551.0,3.81,0.1576272,0.20428723,9.870692,0.0,-0.00030543236,-0.0010690133,-49.65,3.6000001,6.9750004,9.874064014648928,0.0011117906107321017,0.15690997217787997,0.2039507944072679,9.869759141257175,,,,,,,,634080.0,,1,0,0,1,1
1789661122561.0,3.82,0.1576272,0.20428723,9.870692,0.0,-0.00030543236,-0.0010690133,-49.425003,3.9750001,6.525,9.874064014648928,0.0011117906107321017,0.15772703963515539,0.20443709601356028,9.870360385291756,,,,,,,,634080.0,,1,0,0,1,1
1789661122571.0,3.83,0.1576272,0.20428723,9.870692,0.0,-0.00030543236,-0.0010690133,-49.425003,3.9750001,6.525,9.874064014648928,0.0011117906107321017,0.1579671268099764,0.20457033683974873,9.870707189300756,,,,,,,,634080.0,,1,0,0,1,1
1789661122581.0,3.84,0.1576272,0.20428723,9.870692,0.0,-0.00030543236,-0.0010690133,-49.425003,3.9750001,6.525,9.874064014648928,0.0011117906107321017,0.15752674684327495,0.2041317362894625,9.870390394483293,,,,,,,,634080.0,,1,0,0,1,1
1789661122591.0,3.85,0.1576272,0.20428723,9.870692,0.0,-0.00030543236,-0.0010690133,-49.425003,3.9750001,6.525,9.874064014648928,0.0011117906107321017,0.15657955042835164,0.20317509021575425,9.86938675230063,,,,,,,,634080.0,,1,0,0,1,1
1789661122601.0,3.86,0.15433706,0.20129621,9.866206,0.0,-0.00030543236,-0.0010690133,-49.425003,3.9750001,6.525,9.869466091267846,0.0011117906107321017,0.1554846136241794,0.20207438716710635,9.868038874302187,,,,,,,,634080.0,,1,0,0,1,1
1789661122611.0,3.87,0.15433706,0.20129621,9.866206,0.0,-0.00030543236,-0.0010690133,-49.425003,3.9750001,6.525,9.869466091267846,0.0011117906107321017,0.15459381026780827,0.20136324157696286,9.866763575609276,,,,,,,,634080.0,,1,0,0,1,1
1789661122621.0,3.88,0.15433706,0.20129621,9.866206,0.0,-0.00030543236,-0.0010690133,-49.425003,3.9750001,6.525,9.869466091267846,0.0011117906107321017,0.15407668859544862,0.2014315036080804,9.865752919765004,,,,,,,,634080.0,,1,0,0,1,1
1789661122631.0,3.89,0.15433706,0.20129621,9.866206,0.0,-0.00030543236,-0.0010690133,-49.425003,3.9750001,6.525,9.869466091267846,0.0011117906107321017,0.15388329837382822,0.2022818043421617,9.864923513047842,,,,,,,,634080.0,,1,0,0,1,1
1789661122641.0,3.9,0.15373886,0.20488544,9.8632145,0.0,-0.0009162971,0.00015271618,-49.425003,3.9750001,6.525,9.86654012071143,0.0009289362772021568,0.15385077012841483,0.20352915211544628,9.864116413741723,,,,,,,,634080.0,,1,0,0,1,1
1789661122651.0,3.91,0.15373886,0.20488544,9.8632145,0.0,-0.0009162971,0.00015271618,-49.425003,3.9750001,6.525,9.86654012071143,0.0009289362772021568,0.15384065929620028,0.20464384411494352,9.863328450506506,,,,,,,,634080.0,,1,0,0,1,1
1789661122661.0,3.92,0.15373886,0.20488544,9.8632145,0.0,-0.0009162971,0.00015271618,-49.425003,3.9750001,7.05,9.86654012071143,0.0009289362772021568,0.1538013295591203,0.205248936213581,9.862783001317553,,,,,,,,634080.0,,1,0,0,1,1
1789661122671.0,3.93,0.15373886,0.20488544,9.8632145,0.0,-0.0009162971,0.00015271618,-49.425003,3.9750001,7.05,9.86654012071143,0.0009289362772021568,0.15374685370860333,0.20526475806529162,9.862813335149514,,,,,,,,634080.0,,1,0,0,1,1
1789661122681.0,3.94,0.15373886,0.20488544,9.8632145,0.0,-0.0009162971,0.00015271618,-49.425003,3.9750001,7.05,9.86654012071143,0.0009289362772021568,0.15370833892885763,0.20485193544850855,9.863638665793795,,,,,,,,634080.0,,1,0,0,1,1
1789661122691.0,3.95,0.15373886,0.20488544,9.8632145,0.0,-0.0009162971,0.00015271618,-49.425003,3.9750001,7.05,9.86654012071143,0.0009289362772021568,0.1537031185979082,0.20425899996438085,9.865160992839987,,,,,,,,634080.0,,1,0,0,1,1
1789661122701.0,3.96,0.15373886,0.20309082,9.868897,0.0,-0.0009162971,0.00015271618,-49.425003,3.9750001,7.05,9.872183624449628,0.0009289362772021568,0.15372812507626094,0.20369042818210195,9.866939231581615,,,,,,,,634080.0,,1,0,0,1,1
1789661122711.0,3.97,0.15373886,0.20309082,9.868897,0.0,-0.0009162971,0.00015271618,-49.425003,3.9750001,7.05,9.872183624449628,0.0009289362772021568,0.15376296068392262,0.20323914248569191,9.868410888790482,,,,,,,,634080.0,,1,0,0,1,1
1789661122721.0,3.98,0.15373886,0.20309082,9.868897,0.0,-0.0009162971,0.00015271618,-49.425003,3.9750001,7.05,9.872183624449628,0.0009289362772021568,0.15377312847805885,0.2028889895851073,9.869215422498302,,,,,,,,634080.0,,1,0,0,1,1
1789661122731.0,3.99,0.15373886,0.20309082,9.868897,0.0,-0.0009162971,0.00015271618,-49.425003,3.9750001,7.05,9.872183624449628,0.0009289362772021568,0.1537177808260838,0.20257833828128086,9.869358943069125,,,,,,,,634080.0,,1,0,0,1,1
1789661122741.0,4.0,0.15343975,0.20189442,9.868897,0.0,-0.00030543236,0.00015271618,-49.425003,3.9750001,7.05,9.872154431040684,0.0003414837597440938,0.15357183391212695,0.2022782749994146,9.869115263998726,,,,,,,,634080.0,,1,0,0,1,1
1789661122751.0,4.01,0.15343975,0.20189442,9.868897,0.0,-0.00030543236,0.00015271618,-49.425003,3.9750001,7.05,9.872154431040684,0.0003414837597440938,0.1533624965376208,0.20202035728513498,9.868802493681843,,,,,,,,634080.0,,1,0,0,1,1
1789661122761.0,4.02,0.15343975,0.20189442,9.868897,0.0,-0.00030543236,0.00015271618,-49.65,3.9,6.9750004,9.872154431040684,0.0003414837597440938,0.15319850120704676,0.2018591151781473,9.86863248235826,,,,,,,,634080.0,,1,0,0,1,1
1789661122771.0,4.03,0.15343975,0.20189442,9.868897,0.0,-0.00030543236,0.00015271618,-49.65,3.9,6.9750004,9.872154431040684,0.0003414837597440938,0.15325164445294628,0.20181894666137176,9.868693707811028,,,,,,,,634080.0,,1,0,0,1,1
1789661122781.0,4.04,0.15343975,0.20189442,9.868897,0.0,-0.00030543236,0.00015271618,-49.65,3.9,6.9750004,9.872154431040684,0.0003414837597440938,0.15366457215946216,0.20187619928801645,9.868991960827136,,,,,,,,634080.0,,1,0,0,1,1
1789661122791.0,4.05,0.15343975,0.20189442,9.868897,0.0,-0.00030543236,0.00015271618,-49.65,3.9,6.9750004,9.872154431040684,0.0003414837597440938,0.15442369627539485,0.2019802326149252,9.869466707707346,,,,,,,,634080.0,,1,0,0,1,1
1789661122801.0,4.06,0.15613168,0.20219351,9.870394,0.0,-0.00030543236,0.00015271618,-49.65,3.9,6.9750004,9.873699257736268,0.0003414837597440938,0.1553035679641726,0.20208604788673226,9.86998396412542,,,,,,,,634080.0,,1,0,0,1,1
1789661122811.0,4.07,0.15613168,0.20219351,9.870394,0.0,-0.00030543236,0.00015271618,-49.65,3.9,6.9750004,9.873699257736268,0.0003414837597440938,0.1559638513616285,0.20217412551625943,9.870358881479833,,,,,,,,634080.0,,1,0,0,1,1
1789661122821.0,4.08,0.15613168,0.20219351,9.870394,0.0,-0.00030543236,0.00015271618,-49.65,3.9,6.9750004,9.873699257736268,0.0003414837597440938,0.15615033230000003,0.20224856830917706,9.870427205145305,,,,,,,,634080.0,,1,0,0,1,1
1789661122831.0,4.09,0.15613168,0.20219351,9.870394,0.0,-0.00030543236,0.00015271618,-49.65,3.9,6.9750004,9.873699257736268,0.0003414837597440938,0.15584698776299635,0.20231953698956046,9.870124140019886,,,,,,,,634080.0,,1,0,0,1,1
1789661122841.0,4.1,0.15463616,0.20249261,9.868897,0.0,-0.0007635809,0.00015271618,-49.65,3.9,6.9750004,9.872185350554009,0.0007787027818613482,0.15526630711080636,0.20238735370767166,9.869522802436668,,,,,,,,634080.0,,1,0,0,1,1
1789661122851.0,4.11,0.15463616,0.20249261,9.868897,0.0,-0.0007635809,0.00015271618,-49.65,3.9,6.9750004,9.872185350554009,0.0007787027818613482,0.15470487674948633,0.2024432536091703,9.86882837080324,,,,,,,,634080.0,,1,0,0,1,1
1789661122861.0,4.12,0.15463616,0.20249261,9.868897,0.0,-0.0007635809,0.00015271618,-49.800003,3.7500002,7.5000005,9.872185350554009,0.0007787027818613482,0.1543874621681736,0.20248298559134847,9.868347483367177,,,,,,,,634080.0,,1,0,0,1,1
1789661122871.0,4.13,0.15463616,0.20249261,9.868897,0.0,-0.0007635809,0.00015271618,-49.800003,3.7500002,7.5000005,9.872185350554009,0.0007787027818613482,0.1543966584248771,0.20251466629046813,9.868418251983103,,,,,,,,634080.0,,1,0,0,1,1
1789661122881.0,4.14,0.15463616,0.20249261,9.868897,0.0,-0.0007635809,0.00015271618,-49.800003,3.7500002,7.5000005,9.872185350554009,0.0007787027818613482,0.15468733286166533,0.20255060622919183,9.869257940593469,,,,,,,,634080.0,,1,0,0,1,1
1789661122891.0,4.15,0.15463616,0.20249261,9.868897,0.0,-0.0007635809,0.00015271618,-49.800003,3.7500002,7.5000005,9.872185350554009,0.0007787027818613482,0.15512885545396077,0.20259442853030393,9.87076036684395,,,,,,,,634080.0,,1,0,0,1,1
1789661122901.0,4.16,0.15583257,0.20279172,9.873684,0.0,-0.0007635809,0.00015271618,-49.800003,3.7500002,7.5000005,9.876995697246677,0.0007787027818613482,0.15554763199678978,0.2026429628554553,9.87241128826458,,,,,,,,634080.0,,1,0,0,1,1
1789661122911.0,4.17,0.15583257,0.20279172,9.873684,0.0,-0.0007635809,0.00015271618,-49.800003,3.7500002,7.5000005,9.876995697246677,0.0007787027818613482,0.1557864124639881,0.20270545537066958,9.873487588182703,,,,,,,,634080.0,,1,0,0,1,1
1789661122921.0,4.18,0.15583257,0.20279172,9.873684,0.0,-0.0007635809,0.00015271618,-49.800003,3.7500002,7.5000005,9.876995697246677,0.0007787027818613482,0.15578059352502763,0.2028181123564224,9.873478561603163,,,,,,,,634080.0,,1,0,0,1,1
1789661122931.0,4.19,0.15583257,0.20279172,9.873684,0.0,-0.0007635809,0.00015271618,-49.800003,3.7500002,7.5000005,9.876995697246677,0.0007787027818613482,0.15560252323375845,0.20302940871517156,9.872426348998298,,,,,,,,634080.0,,1,0,0,1,1
1789661122941.0,4.2,0.15523437,0.20368902,9.869197,0.0,0.00030543236,0.00015271618,-49.800003,3.7500002,7.5000005,9.87251925049057,0.0003414837597440938,0.15541928367816316,0.20335632139380574,9.870901294666096,,,,,,,,634080.0,,1,0,0,1,1
1789661122951.0,4.21,0.15523437,0.20368902,9.869197,0.0,0.00030543236,0.00015271618,-49.800003,3.7500002,7.5000005,9.87251925049057,0.0003414837597440938,0.15536830683725691,0.2037366907630096,9.869614679145982,,,,,,,,634080.0,,1,0,0,1,1
1789661122961.0,4.22,0.15523437,0.20368902,9.869197,0.0,0.00030543236,0.00015271618,-49.800003,3.6000001,6.525,9.87251925049057,0.0003414837597440938,0.15543079810119761,0.2040100841913064,9.868968119774298,,,,,,,,634080.0,,1,0,0,1,1
1789661122971.0,4.23,0.15523437,0.20368902,9.869197,0.0,0.00030543236,0.00015271618,-49.800003,3.6000001,6.525,9.87251925049057,0.0003414837597440938,0.1554112866485941,0.2039588340888559,9.868876973032412,,,,,,,,634080.0,,1,0,0,1,1
1789661122981.0,4.24,0.15523437,0.20368902,9.869197,0.0,0.00030543236,0.00015271618,-49.800003,3.6000001,6.525,9.87251925049057,0.0003414837597440938,0.1550761567173879,0.2034251328748573,9.86895767977011,,,,,,,,634080.0,,1,0,0,1,1
1789661122991.0,4.25,0.15523437,0.20368902,9.869197,0.0,0.00030543236,0.00015271618,-49.800003,3.6000001,6.525,9.87251925049057,0.0003414837597440938,0.15438288402353123,0.20245792954363376,9.86888000510838,,,,,,,,634080.0,,1,0,0,1,1
1789661123001.0,4.26,0.15343975,0.20039889,9.8682995,0.0,0.00030543236,0.00015271618,-49.800003,3.6000001,6.525,9.871526654661555,0.0003414837597440938,0.15362545898815924,0.2013679727597556,9.868603501032037,,,,,,,,634080.0,,1,0,0,1,1
1789661123011.0,4.27,0.15343975,0.20039889,9.8682995,0.0,0.00030543236,0.00015271618,-49.800003,3.6000001,6.525,9.871526654661555,0.0003414837597440938,0.15333482153587996,0.2005944334240847,9.868358050895814,,,,,,,,634080.0,,1,0,0,1,1
1789661123021.0,4.28,0.15343975,0.20039889,9.8682995,0.0,0.00030543236,0.00015271618,-49.800003,3.6000001,6.525,9.871526654661555,0.0003414837597440938,0.15394226870362712,0.20044336728955933,9.868431312213035,,,,,,,,634080.0,,1,0,0,1,1
1789661123031.0,4.29,0.15343975,0.20039889,9.8682995,0.0,0.00030543236,0.00015271618,-49.800003,3.6000001,6.525,9.871526654661555,0.0003414837597440938,0.15543334919124283,0.20089541207128164,9.86894219349456,,,,,,,,634080.0,,1,0,0,1,1
1789661123041.0,4.3,0.1594218,0.20249261,9.870692,0.0,0.00030543236,0.00015271618,-49.800003,3.6000001,6.525,9.874055859994101,0.0003414837597440938,0.15729012817003557,0.20163787103444644,9.869755817948702,,,,,,,,634080.0,,1,0,0,1,1
1789661123051.0,4.31,0.1594218,0.20249261,9.870692,0.0,0.00030543236,0.00015271618,-49.800003,3.6000001,6.525,9.874055859994101,0.0003414837597440938,0.15881787275224715,0.20229008889477657,9.87056924113125,,,,,,,,634080.0,,1,0,0,1,1
1789661123061.0,4.32,0.1594218,0.20249261,9.870692,0.0,0.00030543236,0.00015271618,-49.350002,3.9,6.9750004,9.874055859994101,0.0003414837597440938,0.159612205439785,0.20263891251797123,9.871072630741647,,,,,,,,634080.0,,1,0,0,1,1
1789661123071.0,4.33,0.1594218,0.20249261,9.870692,0.0,0.00030543236,0.00015271618,-49.350002,3.9,6.9750004,9.874055859994101,0.0003414837597440938,0.15978199478167288,0.202714202672144,9.871073863087876,,,,,,,,634080.0,,1,0,0,1,1
1789661123081.0,4.34,0.1594218,0.20249261,9.870692,0.0,0.00030543236,0.00015271618,-49.350002,3.9,6.9750004,9.874055859994101,0.0003414837597440938,0.15976775817156014,0.20268666444408703,9.870557964101575,,,,,,,,634080.0,,1,0,0,1,1
1789661123091.0,4.35,0.1594218,0.20249261,9.870692,0.0,0.00030543236,0.00015271618,-49.350002,3.9,6.9750004,9.874055859994101,0.0003414837597440938,0.1599490996553525,0.20271298861110432,9.869707157332867,,,,,,,,634080.0,,1,0,0,1,1
1789661123101.0,4.36,0.16091733,0.20338993,9.8682995,0.0,0.00030543236,0.00015271618,-49.350002,3.9,6.9750004,9.87170688748506,0.0003414837597440938,0.16037188271528438,0.20286210086202963,9.868865720200022,,,,,,,,634080.0,,1,0,0,1,1
1789661123111.0,4.37,0.16091733,0.20338993,9.8682995,0.0,0.00030543236,0.00015271618,-49.350002,3.9,6.9750004,9.87170688748506,0.0003414837597440938,0.1607734838901888,0.2031460900976502,9.8684006370049,,,,,,,,634080.0,,1,0,0,1,1
1789661123121.0,4.38,0.16091733,0.20338993,9.8682995,0.0,0.00030543236,0.00015271618,-49.350002,3.9,6.9750004,9.87170688748506,0.0003414837597440938,0.16083109417551583,0.20357304404751186,9.86848879762204,,,,,,,,634080.0,,1,0,0,1,1
1789661123131.0,4.39,0.16091733,0.20338993,9.8682995,0.0,0.00030543236,0.00015271618,-49.350002,3.9,6.9750004,9.87170688748506,0.0003414837597440938,0.16041482554590503,0.2041422127289079,9.868980038147537,,,,,,,,634080.0,,1,0,0,1,1
1789661123141.0,4.4,0.15882361,0.20548365,9.870094,0.0,0.00030543236,0.00015271618,-49.350002,3.9,6.9750004,9.873510218678398,0.0003414837597440938,0.1596707034431333,0.20479483337451343,9.869485471807888,,,,,,,,634080.0,,1,0,0,1,1
1789661123151.0,4.41,0.15882361,0.20548365,9.870094,0.0,0.00030543236,0.00015271618,-49.350002,3.9,6.9750004,9.873510218678398,0.0003414837597440938,0.15891649743709269,0.2053928511584089,9.869682025099161,,,,,,,,634080.0,,1,0,0,1,1
1789661123161.0,4.42,0.15882361,0.20548365,9.870094,0.0,0.00030543236,0.00015271618,-49.500004,3.9750001,7.8750005,9.873510218678398,0.0003414837597440938,0.15846434790519667,0.20575811175366585,9.869623930543803,,,,,,,,634080.0,,1,0,0,1,1
1789661123171.0,4.43,0.15882361,0.20548365,9.870094,0.0,0.00030543236,0.00015271618,-49.500004,3.9750001,7.8750005,9.873510218678398,0.0003414837597440938,0.15848886769807966,0.20574361886121845,9.869784094937737,,,,,,,,634080.0,,1,0,0,1,1
1789661123181.0,4.44,0.15882361,0.20548365,9.870094,0.0,0.00030543236,0.00015271618,-49.500004,3.9750001,7.8750005,9.873510218678398,0.0003414837597440938,0.15897010203413667,0.20530363786567057,9.870711375172048,,,,,,,,634080.0,,1,0,0,1,1
1789661123191.0,4.45,0.15882361,0.20548365,9.870094,0.0,0.00030543236,0.00015271618,-49.500004,3.9750001,7.8750005,9.873510218678398,0.0003414837597440938,0.1596881216358051,0.20454023502872418,9.872507311384485,,,,,,,,634080.0,,1,0,0,1,1
1789661123201.0,4.46,0.16061822,0.20279172,9.876077,0.0,0.00030543236,0.00015271618,-49.500004,3.9750001,7.8750005,9.879464540359743,0.0003414837597440938,0.16028416603411816,0.2036860924660946,9.874551499998207,,,,,,,,634080.0,,1,0,0,1,1
1789661123211.0,4.47,0.16061822,0.20279172,9.876077,0.0,0.00030543236,0.00015271618,-49.500004,3.9750001,7.8750005,9.879464540359743,0.0003414837597440938,0.16042655763257893,0.20299647483721306,9.875787077163645,,,,,,,,634080.0,,1,0,0,1,1
1789661123221.0,4.48,0.16061822,0.20279172,9.876077,0.0,0.00030543236,0.00015271618,-49.500004,3.9750001,7.8750005,9.879464540359743,0.0003414837597440938,0.16002885848772083,0.20260549383604115,9.875431396083847,,,,,,,,634080.0,,1,0,0,1,1
1789661123231.0,4.49,0.16061822,0.20279172,9.876077,0.0,0.00030543236,0.00015271618,-49.500004,3.9750001,7.8750005,9.879464540359743,0.0003414837597440938,0.1593473292497761,0.20245969025477206,9.873570679807099,,,,,,,,634080.0,,1,0,0,1,1
1789661123241.0,4.5,0.15553348,0.2015953,9.867402,0.0,0.00030543236,0.00015271618,-49.500004,3.9750001,7.8750005,9.870686579868039,0.0003414837597440938,0.15882118861955663,0.20238980656984343,9.87113347412866,,,,,,,,634080.0,,1,0,0,1,1
1789661123251.0,4.51,0.15972091,0.20279172,9.868897,0.0,-0.0009162971,0.00015271618,-49.500004,3.9750001,7.8750005,9.872272445967079,0.0009289362772021568,0.15874786001038968,0.20227741851140418,9.869235896616372,,,,,,,,634080.0,,1,0,0,1,1
1789661123261.0,4.52,0.15972091,0.20279172,9.868897,0.0,-0.0009162971,0.00015271618,-49.65,3.6000001,6.6000004,9.872272445967079,0.0009289362772021568,0.15907538843010496,0.20220632236172845,9.868427048802651,,,,,,,,634080.0,,1,0,0,1,1
1789661123271.0,4.53,0.15972091,0.20279172,9.868897,0.0,-0.0009162971,0.00015271618,-49.65,3.6000001,6.6000004,9.872272445967079,0.0009289362772021568,0.1594927559316908,0.20247329140445194,9.868432361092069,,,,,,,,634080.0,,1,0,0,1,1
1789661123281.0,4.54,0.15972091,0.20279172,9.868897,0.0,-0.0009162971,0.00015271618,-49.65,3.6000001,6.6000004,9.872272445967079,0.0009289362772021568,0.15969814799322096,0.20339096473809884,9.86853532058671,,,,,,,,634080.0,,1,0,0,1,1
1789661123291.0,4.55,0.15972091,0.20279172,9.868897,0.0,-0.0009162971,0.00015271618,-49.65,3.6000001,6.6000004,9.872272445967079,0.0009289362772021568,0.15957693098272221,0.20498282542063984,9.86821944257868,,,,,,,,634080.0,,1,0,0,1,1
1789661123301.0,4.56,0.1582254,0.20877378,9.867104,0.0,-0.0009162971,0.00015271618,-49.65,3.6000001,6.6000004,9.870580687843884,0.0009289362772021568,0.1591664837313136,0.20683304034557382,9.867561707299513,,,,,,,,634080.0,,1,0,0,1,1
1789661123311.0,4.57,0.1582254,0.20877378,9.867104,0.0,-0.0009162971,0.00015271618,-49.65,3.6000001,6.6000004,9.870580687843884,0.0009289362772021568,0.15852042239517966,0.20828377448360463,9.867130102399582,,,,,,,,634080.0,,1,0,0,1,1
1789661123321.0,4.58,0.1582254,0.20877378,9.867104,0.0,-0.0009162971,0.00015271618,-49.65,3.6000001,6.6000004,9.870580687843884,0.0009289362772021568,0.15766133921351302,0.20885945031114922,9.86751298149197,,,,,,,,634080.0,,1,0,0,1,1
1789661123331.0,4.59,0.1582254,0.20877378,9.867104,0.0,-0.0009162971,0.00015271618,-49.65,3.6000001,6.6000004,9.870580687843884,0.0009289362772021568,0.15667027985348153,0.20856620284208055,9.868847519278578,,,,,,,,634080.0,,1,0,0,1,1
1789661123341.0,4.6,0.15463616,0.20697916,9.8727865,-0.00030543236,-0.0006108647,0.00015271618,-49.65,3.6000001,6.6000004,9.876166563461558,0.00069983343723707,0.15576077161158747,0.2078299651833228,9.87069386956045,,,,,,,,634080.0,,1,0,0,1,1
1789661123351.0,4.61,0.15463616,0.20697916,9.8727865,-0.00030543236,-0.0006108647,0.00015271618,-49.65,3.6000001,6.6000004,9.876166563461558,0.00069983343723707,0.15517017462243604,0.20715999075097397,9.87233063551133,,,,,,,,634080.0,,1,0,0,1,1
1789661123361.0,4.62,0.15463616,0.20697916,9.8727865,-0.00030543236,-0.0006108647,0.00015271618,-49.425003,3.9,6.9750004,9.876166563461558,0.00069983343723707,0.1549229365490506,0.20682525283979528,9.873215861818421,,,,,,,,634080.0,,1,0,0,1,1
1789661123371.0,4.63,0.15463616,0.20697916,9.8727865,-0.00030543236,-0.0006108647,0.00015271618,-49.425003,3.9,6.9750004,9.876166563461558,0.00069983343723707,0.15472243902256563,0.20676540238876173,9.873255016690752,,,,,,,,634080.0,,1,0,0,1,1
1789661123381.0,4.64,0.15463616,0.20697916,9.8727865,-0.00030543236,-0.0006108647,0.00015271618,-49.425003,3.9,6.9750004,9.876166563461558,0.00069983343723707,0.15414961528583723,0.20673838086946314,9.872728877180036,,,,,,,,634080.0,,1,0,0,1,1
1789661123391.0,4.65,0.15463616,0.20697916,9.8727865,-0.00030543236,-0.0006108647,0.00015271618,-49.425003,3.9,6.9750004,9.876166563461558,0.00069983343723707,0.1530485367903239,0.2065354635454857,9.872011591769255,,,,,,,,634080.0,,1,0,0,1,1
1789661123401.0,4.66,0.15074782,0.20518455,9.870094,-0.00030543236,-0.0006108647,0.00015271618,-49.425003,3.9,6.9750004,9.873377394469912,0.00069983343723707,0.1517611829185509,0.20609338336816752,9.871300409609272,,,,,,,,634080.0,,1,0,0,1,1
1789661123411.0,4.67,0.15074782,0.20518455,9.870094,-0.00030543236,-0.0006108647,0.00015271618,-49.425003,3.9,6.9750004,9.873377394469912,0.00069983343723707,0.15095941425027617,0.20547069753392047,9.870513941172753,,,,,,,,634080.0,,1,0,0,1,1
1789661123421.0,4.68,0.15074782,0.20518455,9.870094,-0.00030543236,-0.0006108647,0.00015271618,-49.425003,3.9,6.9750004,9.873377394469912,0.00069983343723707,0.15115937749787683,0.2047843372871347,9.869417898999373,,,,,,,,634080.0,,1,0,0,1,1
1789661123431.0,4.69,0.15074782,0.20518455,9.870094,-0.00030543236,-0.0006108647,0.00015271618,-49.425003,3.9,6.9750004,9.873377394469912,0.00069983343723707,0.15230165672486695,0.20418805981925117,9.867899433207294,,,,,,,,634080.0,,1,0,0,1,1
1789661123441.0,4.7,0.15553348,0.20338993,9.864112,0.0,0.00030543236,0.00015271618,-49.425003,3.9,6.9750004,9.867434503231847,0.0003414837597440938,0.15376496111866983,0.20384972156923656,9.866162635493975,,,,,,,,634080.0,,1,0,0,1,1
1789661123451.0,4.71,0.15553348,0.20338993,9.864112,0.0,0.00030543236,0.00015271618,-49.425003,3.9,6.9750004,9.867434503231847,0.0003414837597440938,0.15484036432619677,0.2038380718646912,9.864650046172153,,,,,,,,634080.0,,1,0,0,1,1
1789661123461.0,4.72,0.15553348,0.20338993,9.864112,0.0,0.00030543236,0.00015271618,-49.65,3.6750002,7.8750005,9.867434503231847,0.0003414837597440938,0.15529534780856027,0.20396198843022179,9.863757646091065,,,,,,,,634080.0,,1,0,0,1,1
1789661123471.0,4.73,0.15553348,0.20338993,9.864112,0.0,0.00030543236,0.00015271618,-49.65,3.6750002,7.8750005,9.867434503231847,0.0003414837597440938,0.1555482129190483,0.20375991598659424,9.863611974727906,,,,,,,,634080.0,,1,0,0,1,1
1789661123481.0,4.74,0.15553348,0.20338993,9.864112,0.0,0.00030543236,0.00015271618,-49.65,3.6750002,7.8750005,9.867434503231847,0.0003414837597440938,0.15627857305916665,0.202783477294464,9.86407600031534,,,,,,,,634080.0,,1,0,0,1,1
1789661123491.0,4.75,0.15553348,0.20338993,9.864112,0.0,0.00030543236,0.00015271618,-49.65,3.6750002,7.8750005,9.867434503231847,0.0003414837597440938,0.15777782282953356,0.20103986805114699,9.86491083144885,,,,,,,,634080.0,,1,0,0,1,1
1789661123501.0,4.76,0.16121642,0.19800608,9.867104,0.0,0.00030543236,0.00015271618,-49.65,3.6750002,7.8750005,9.870407209867817,0.0003414837597440938,0.159589451058465,0.19920425546102594,9.865926257167395,,,,,,,,634080.0,,1,0,0,1,1
1789661123511.0,4.77,0.16121642,0.19800608,9.867104,0.0,0.00030543236,0.00015271618,-49.65,3.6750002,7.8750005,9.870407209867817,0.0003414837597440938,0.16077643523809904,0.1982894030961486,9.867019993166103,,,,,,,,634080.0,,1,0,0,1,1
1789661123521.0,4.78,0.16121642,0.19800608,9.867104,0.0,0.00030543236,0.00015271618,-49.65,3.6750002,7.8750005,9.870407209867817,0.0003414837597440938,0.16063042606826655,0.19889842604890606,9.86810545932802,,,,,,,,634080.0,,1,0,0,1,1
1789661123531.0,4.79,0.16121642,0.19800608,9.867104,0.0,0.00030543236,0.00015271618,-49.65,3.6750002,7.8750005,9.870407209867817,0.0003414837597440938,0.1592442320801007,0.20063307226544053,9.869022273530303,,,,,,,,634080.0,,1,0,0,1,1
1789661123541.0,4.8,0.15433706,0.20398813,9.873982,0.0,0.00030543236,0.00015271618,-49.65,3.6750002,7.8750005,9.877294752187684,0.0003414837597440938,0.15746523434209378,0.20223476660722195,9.86956364938598,,,,,,,,634080.0,,1,0,0,1,1
1789661123551.0,4.81,0.15523437,0.20727827,9.867402,0.0,0.00030543236,0.00015271618,-49.65,3.6750002,7.8750005,9.870799573512143,0.0003414837597440938,0.15627009591992091,0.202484365505958,9.869634842961323,,,,,,,,634080.0,,1,0,0,1,1
1789661123561.0,4.82,0.15732808,0.19860429,9.869197,0.0,-0.0,0.00015271618,-49.875004,3.45,7.8750005,9.872448795186122,0.00015271618,0.15609319591140575,0.2011837122348521,9.869372701587615,,,,,,,,634080.0,,1,0,0,1,1
1789661123571.0,4.83,0.15732808,0.19860429,9.869197,0.0,-0.0,0.00015271618,-49.875004,3.45,7.8750005,9.872448795186122,0.00015271618,0.15664279001894293,0.1993694003687439,9.869075621471064,,,,,,,,634080.0,,1,0,0,1,1
1789661123581.0,4.84,0.15732808,0.19860429,9.869197,0.0,-0.0,0.00015271618,-49.875004,3.45,7.8750005,9.872448795186122,0.00015271618,0.1572625783796029,0.19853315015834117,9.869006157975207,,,,,,,,634080.0,,1,0,0,1,1
1789661123591.0,4.85,0.15732808,0.19860429,9.869197,0.0,-0.0,0.00015271618,-49.875004,3.45,7.8750005,9.872448795186122,0.00015271618,0.15744850967917892,0.19947096611646903,9.869239978969569,,,,,,,,634080.0,,1,0,0,1,1
1789661123601.0,4.86,0.15732808,0.19860429,9.869197,0.0,-0.0,0.00015271618,-49.875004,3.45,7.8750005,9.872448795186122,0.00015271618,0.1571155466946603,0.2016750149578395,9.869650225735976,,,,,,,,634080.0,,1,0,0,1,1
1789661123611.0,4.87,0.15583257,0.20727827,9.870394,0.0,-0.0,0.00015271618,-49.875004,3.45,7.8750005,9.873799966898407,0.00015271618,0.15651071029130026,0.203756484573079,9.870006462042225,,,,,,,,634080.0,,1,0,0,1,1
1789661123621.0,4.88,0.15583257,0.20727827,9.870394,0.0,-0.0,0.00015271618,-49.875004,3.45,7.8750005,9.873799966898407,0.00015271618,0.15594037172508393,0.20459883915842844,9.870122267979683,,,,,,,,634080.0,,1,0,0,1,1
1789661123631.0,4.89,0.15583257,0.20727827,9.870394,0.0,-0.0,0.00015271618,-49.875004,3.45,7.8750005,9.873799966898407,0.00015271618,0.15555064464220247,0.2042918199086741,9.869965146459535,,,,,,,,634080.0,,1,0,0,1,1
1789661123641.0,4.9,0.15523437,0.19471595,9.8682995,0.0,-0.0,0.00015271618,-49.875004,3.45,7.8750005,9.87144098055162,0.00015271618,0.15529924401249368,0.2039723436004871,9.869657807851201,,,,,,,,634080.0,,1,0,0,1,1
1789661123651.0,4.91,0.15523437,0.20697916,9.869795,0.0,0.00030543236,0.00015271618,-49.875004,3.45,7.8750005,9.873185475029253,0.0003414837597440938,0.15509249784516083,0.20466169841947873,9.869386026427918,,,,,,,,634080.0,,1,0,0,1,1
1789661123661.0,4.92,0.15523437,0.20697916,9.869795,0.0,0.00030543236,0.00015271618,-49.875004,4.05,7.8750005,9.873185475029253,0.0003414837597440938,0.15494728334191493,0.20618483373894764,9.869308314815788,,,,,,,,634080.0,,1,0,0,1,1
1789661123671.0,4.93,0.15523437,0.20697916,9.869795,0.0,0.00030543236,0.00015271618,-49.875004,4.05,7.8750005,9.873185475029253,0.0003414837597440938,0.15503369158594207,0.20718918277901502,9.869526171628126,,,,,,,,634080.0,,1,0,0,1,1
1789661123681.0,4.94,0.15523437,0.20697916,9.869795,0.0,0.00030543236,0.00015271618,-49.875004,4.05,7.8750005,9.873185475029253,0.0003414837597440938,0.1555464092580145,0.20623788239505947,9.870071867451408,,,,,,,,634080.0,,1,0,0,1,1
1789661123691.0,4.95,0.15523437,0.20697916,9.869795,0.0,0.00030543236,0.00015271618,-49.875004,4.05,7.8750005,9.873185475029253,0.0003414837597440938,0.15649178747898854,0.20304779977963933,9.87086450758022,,,,,,,,634080.0,,1,0,0,1,1
1789661123701.0,4.96,0.1585245,0.19531415,9.872487,0.0,0.00030543236,0.00015271618,-49.875004,4.05,7.8750005,9.875691226413442,0.0003414837597440938,0.15757642752814413,0.19889569632018958,9.871685904335838,,,,,,,,634080.0,,1,0,0,1,1
1789661123711.0,4.97,0.1585245,0.19531415,9.872487,0.0,0.00030543236,0.00015271618,-49.875004,4.05,7.8750005,9.875691226413442,0.0003414837597440938,0.15833293281523694,0.19587900978452596,9.872265341256373,,,,,,,,634080.0,,1,0,0,1,1
1789661123721.0,4.98,0.1585245,0.19531415,9.872487,0.0,0.00030543236,0.00015271618,-49.875004,4.05,7.8750005,9.875691226413442,0.0003414837597440938,0.1584198256988434,0.19556613153208316,9.872451291649632,,,,,,,,634080.0,,1,0,0,1,1
1789661123731.0,4.99,0.1585245,0.19531415,9.872487,0.0,0.00030543236,0.00015271618,-49.875004,4.05,7.8750005,9.875691226413442,0.0003414837597440938,0.15786236049504176,0.19801805129903857,9.872325382171448,,,,,,,,634080.0,,1,0,0,1,1
1789661123741.0,5.0,0.15613168,0.20608185,9.871889,0.0,-0.0,0.00015271618,-49.875004,4.05,7.8750005,9.87527413587694,0.00015271618,0.15703348646098836,0.2018598759766747,9.87213899112632,,,,,,,,634080.0,,1,0,0,1,1
1789661123751.0,5.01,0.15613168,0.20608185,9.871889,0.0,-0.0,0.00015271618,-49.875004,4.05,7.8750005,9.87527413587694,0.00015271618,0.1563828871797691,0.20526512540388855,9.872101864026831,,,,,,,,634080.0,,1,0,0,1,1
1789661123761.0,5.02,0.15613168,0.20608185,9.871889,0.0,-0.0,0.00015271618,-49.800003,4.275,6.9750004,9.87527413587694,0.00015271618,0.1561221741851898,0.20705696740385424,9.872181896250046,,,,,,,,634080.0,,1,0,0,1,1
1789661123771.0,5.03,0.15613168,0.20608185,9.871889,0.0,-0.0,0.00015271618,-49.800003,4.275,6.9750004,9.87527413587694,0.00015271618,0.1561037121779675,0.2071600760395347,9.872085948288749,,,,,,,,634080.0,,1,0,0,1,1
1789661123781.0,5.04,0.15613168,0.20608185,9.871889,0.0,-0.0,0.00015271618,-49.800003,4.275,6.9750004,9.87527413587694,0.00015271618,0.1559758378049857,0.20626637396344777,9.871472739463833,,,,,,,,634080.0,,1,0,0,1,1
1789661123791.0,5.05,0.15613168,0.20608185,9.871889,0.0,-0.0,0.00015271618,-49.800003,4.275,6.9750004,9.87527413587694,0.00015271618,0.15549137839656144,0.20516826945245123,9.870263389211287,,,,,,,,634080.0,,1,0,0,1,1
1789661123801.0,5.06,0.15433706,0.20338993,9.867402,0.0,-0.0,0.00015271618,-49.800003,4.275,6.9750004,9.870704616253029,0.00015271618,0.1547436843546101,0.20427969658207668,9.868797702550667,,,,,,,,634080.0,,1,0,0,1,1
1789661123811.0,5.07,0.15433706,0.20338993,9.867402,0.0,-0.0,0.00015271618,-49.800003,4.275,6.9750004,9.870704616253029,0.00015271618,0.15416109500564693,0.20355554077078541,9.867672448025571,,,,,,,,634080.0,,1,0,0,1,1
1789661123821.0,5.08,0.15433706,0.20338993,9.867402,0.0,-0.0,0.00015271618,-49.800003,4.275,6.9750004,9.870704616253029,0.00015271618,0.15425335800502354,0.20272810535141644,9.867360396384779,,,,,,,,634080.0,,1,0,0,1,1
1789661123831.0,5.09,0.15433706,0.20338993,9.867402,0.0,-0.0,0.00015271618,-49.800003,4.275,6.9750004,9.870704616253029,0.00015271618,0.15526729909108997,0.20163855908031153,9.867904824762084,,,,,,,,634080.0,,1,0,0,1,1
1789661123841.0,5.1,0.15643078,0.19800608,9.869496,0.0,-0.0,0.00015271618,-49.800003,4.275,6.9750004,9.872721422721517,0.00015271618,0.15698260554525906,0.2004184302137278,9.868919209671253,,,,,,,,634080.0,,1,0,0,1,1
1789661123851.0,5.11,0.16031912,0.19950159,9.870394,-0.0012217294,0.00030543236,0.00015271618,-49.800003,4.275,6.9750004,9.873711603033891,0.001268555826518219,0.15880811259372954,0.19940570090478418,9.86987173461981,,,,,,,,634080.0,,1,0,0,1,1
1789661123861.0,5.12,0.16031912,0.19950159,9.870394,-0.0012217294,0.00030543236,0.00015271618,-49.800003,4.275,6.9750004,9.873711603033891,0.001268555826518219,0.16013154285595046,0.19891242817277047,9.870426386677297,,,,,,,,634080.0,,1,0,0,1,1
