timestamp_ms,relative_time_s,accel_x,accel_y,accel_z,gyro_x,gyro_y,gyro_z,mag_x,mag_y,mag_z,accel_mag,gyro_mag,accel_x_filt,accel_y_filt,accel_z_filt,latitude,longitude,altitude,gnss_speed_m_s,gnss_accuracy,gnss_bearing,gnss_speed_km_h,cell_id,signal_dbm,flag_imu_valid,flag_gnss_valid,flag_speed_ref_valid,flag_outage,flag_cell_valid
1789662427906.0,0.0,0.1381855,0.21774685,9.860224,-0.005803215,-0.011453713,0.0029016074,-58.95,2.4750001,5.625,9.863596010242471,0.013163744578436972,0.13818527635982136,0.2177487613939612,9.860224606110075,,,,,,,,,,1,0,0,1,0
1789662427916.0,0.01,0.1381855,0.21774685,9.860224,-0.0018325942,0.0015271618,0.0029016074,-58.95,2.4750001,5.625,9.863596010242471,0.0037563213612506106,0.1381894775506508,0.2177229357664912,9.860214702089081,11.0554072,76.9271226,374.7000122070313,,57.541,,,,,1,0,0,1,0
1789662427926.0,0.02,0.1381855,0.21774685,9.860224,-0.0018325942,0.0015271618,0.0029016074,-58.95,2.4750001,5.625,9.863596010242471,0.0037563213612506106,0.13820186395816425,0.21764619285352266,9.860185411229246,11.0554072,76.9271226,374.7000122070313,,57.541,,,405.0,,1,0,0,1,1
1789662427936.0,0.03,0.1381855,0.21774685,9.860224,-0.0018325942,0.0015271618,0.0029016074,-58.95,2.4750001,5.625,9.863596010242471,0.0037563213612506106,0.13821602848772935,0.21755810163493727,9.860151865189813,11.0554072,76.9271226,374.7000122070313,,57.541,,,405.0,,1,0,0,1,1
1789662427946.0,0.04,0.1381855,0.21774685,9.860224,-0.0018325942,0.0015271618,0.0029016074,-58.95,2.4750001,5.625,9.863596010242471,0.0037563213612506106,0.13821079854033544,0.21758963109121118,9.860164101925992,11.0554072,76.9271226,374.7000122070313,,57.541,,,405.0,,1,0,0,1,1
1789662427956.0,0.05,0.1381855,0.21774685,9.860224,-0.0018325942,0.0015271618,0.0029016074,-58.95,2.4750001,5.625,9.863596010242471,0.0037563213612506106,0.13816930790073428,0.2178455347348416,9.86026204596255,11.0554072,76.9271226,374.7000122070313,,57.541,,,405.0,,1,0,0,1,1
1789662427966.0,0.06,0.1381855,0.21774685,9.860224,-0.0018325942,0.0015271618,0.0029016074,-58.95,2.4750001,5.625,9.863596010242471,0.0037563213612506106,0.13810677607276986,0.21823255016393348,9.8604098612012,11.0554072,76.9271226,374.7000122070313,,57.541,,,405.0,,1,0,0,1,1
1789662427976.0,0.07,0.1381855,0.21774685,9.860224,-0.0018325942,0.0015271618,0.0029016074,-58.95,2.4750001,5.625,9.863596010242471,0.0037563213612506106,0.13808091961003155,0.2183943472319088,9.860471247407737,11.0554072,76.9271226,374.7000122070313,,57.541,,,405.0,,1,0,0,1,1
1789662427986.0,0.08,0.1381855,0.21774685,9.860224,0.00015271618,0.0015271618,0.0006108647,-58.95,2.4750001,5.625,9.863596010242471,0.0016518780453529621,0.13815893794310735,0.21791465496866155,9.860287300180117,11.0554072,76.9271226,374.7000122070313,,57.541,,,405.0,,1,0,0,1,1
1789662427996.0,0.09,0.1381855,0.21774685,9.860224,0.00015271618,0.0015271618,0.0006108647,-58.95,2.4750001,5.625,9.863596010242471,0.0016518780453529621,0.13834281388658773,0.21677876412852942,9.85985296625696,11.0554072,76.9271226,374.7000122070313,,57.541,,,405.0,,1,0,0,1,1
1789662428006.0,0.1,0.1381855,0.21774685,9.860224,0.00015271618,0.0015271618,0.0006108647,-58.95,2.4750001,5.625,9.863596010242471,0.0016518780453529621,0.13850224822595453,0.2157893682195187,9.859475692079814,11.0554072,76.9271226,374.7000122070313,,57.541,,,405.0,,1,0,0,1,1
1789662428016.0,0.11,0.1381855,0.21774685,9.860224,0.00015271618,0.0015271618,0.0006108647,-58.95,2.4750001,5.625,9.863596010242471,0.0016518780453529621,0.1383931254217379,0.21645472038295463,9.859732143202532,11.0554072,76.9271226,374.7000122070313,,57.541,,,405.0,,1,0,0,1,1
1789662428026.0,0.12,0.1381855,0.21774685,9.860224,0.00015271618,0.0015271618,0.0006108647,-60.675003,2.025,9.0,9.863596010242471,0.0016518780453529621,0.13779884664940553,0.22011581427310858,9.86113440575037,11.0554072,76.9271226,374.7000122070313,,57.541,,,405.0,,1,0,0,1,1
1789662428036.0,0.13,0.1381855,0.21774685,9.860224,0.00015271618,0.0015271618,0.0006108647,-60.675003,2.025,9.0,9.863596010242471,0.0016518780453529621,0.13671856121032389,0.2267792084496929,9.863684713056186,11.0554072,76.9271226,374.7000122070313,,57.541,,,405.0,,1,0,0,1,1
1789662428046.0,0.14,0.13399807,0.2434697,9.870094,0.00015271618,0.0015271618,0.0006108647,-60.675003,2.025,9.0,9.874005699128283,0.0016518780453529621,0.1354362599121207,0.2346828295677742,9.866711131151272,11.0554072,76.9271226,374.7000122070313,,57.541,,,405.0,,1,0,0,1,1
1789662428056.0,0.15,0.13399807,0.2434697,9.870094,0.00015271618,0.0015271618,0.0006108647,-60.675003,2.025,9.0,9.874005699128283,0.0016518780453529621,0.13437051750429477,0.24122303835877612,9.869222282564174,11.0554072,76.9271226,374.7000122070313,,57.541,,,405.0,,1,0,0,1,1
1789662428066.0,0.16,0.13399807,0.2434697,9.870094,0.00015271618,0.0015271618,0.0006108647,-60.675003,2.025,9.0,9.874005699128283,0.0016518780453529621,0.13380650514177161,0.24462630149384887,9.870542728790202,11.0554072,76.9271226,374.7000122070313,,57.541,,,405.0,,1,0,0,1,1
1789662428076.0,0.17,0.13399807,0.2434697,9.870094,0.00015271618,0.0015271618,0.0006108647,-60.675003,2.025,9.0,9.874005699128283,0.0016518780453529621,0.13373302353203126,0.24498599143919586,9.8707023769921,11.0554072,76.9271226,374.7000122070313,,57.541,,,405.0,,1,0,0,1,1
1789662428086.0,0.18,0.13399807,0.2434697,9.870094,0.0007635809,0.0007635809,-0.0,-60.675003,2.025,9.0,9.874005699128283,0.001079866464749054,0.1339030311078951,0.2439031020768545,9.870295753493258,11.0554072,76.9271226,374.7000122070313,,57.541,,,405.0,,1,0,0,1,1
1789662428096.0,0.19,0.13399807,0.2434697,9.870094,0.0007635809,0.0007635809,-0.0,-60.675003,2.025,9.0,9.874005699128283,0.001079866464749054,0.13403725614675652,0.2431887529722469,9.869995311272609,11.0554072,76.9271226,374.7000122070313,,57.541,,,405.0,,1,0,0,1,1
1789662428106.0,0.2,0.13399807,0.2434697,9.870094,0.0007635809,0.0007635809,-0.0,-60.675003,2.025,9.0,9.874005699128283,0.001079866464749054,0.13400683345044523,0.24363734591598368,9.87010549999262,11.0554072,76.9271226,374.7000122070313,,57.541,,,405.0,,1,0,0,1,1
1789662428116.0,0.21,0.13399807,0.2434697,9.870094,0.0007635809,0.0007635809,-0.0,-60.600002,2.325,8.925,9.874005699128283,0.001079866464749054,0.13389031010404842,0.24458123797247047,9.870414165972278,11.0554072,76.9271226,374.7000122070313,,57.541,,,405.0,,1,0,0,1,1
1789662428126.0,0.22,0.13399807,0.2434697,9.870094,0.0007635809,0.0007635809,-0.0,-60.600002,2.325,8.925,9.874005699128283,0.001079866464749054,0.13389561042244597,0.24439423118535142,9.870379602526913,11.0554072,76.9271226,374.7000122070313,,57.541,,,405.0,,1,0,0,1,1
1789662428136.0,0.23,0.13399807,0.2434697,9.870094,0.0007635809,0.0007635809,-0.0,-60.600002,2.325,8.925,9.874005699128283,0.001079866464749054,0.13420252304751665,0.24165616644392846,9.869530425144434,11.0554072,76.9271226,374.7000122070313,,57.541,,,405.0,,1,0,0,1,1
1789662428146.0,0.24,0.13399807,0.2434697,9.870094,0.0007635809,0.0007635809,-0.0,-60.600002,2.325,8.925,9.874005699128283,0.001079866464749054,0.13482038987378833,0.2362917249032835,9.86784002674359,11.0554072,76.9271226,374.7000122070313,,57.541,,,405.0,,1,0,0,1,1
1789662428156.0,0.25,0.1363909,0.22253251,9.863514,0.0007635809,0.0007635809,-0.0,-60.600002,2.325,8.925,9.86696668808635,0.001079866464749054,0.13556133070418594,0.2298366870254089,9.86580562192499,11.0554072,76.9271226,374.7000122070313,,57.541,,,405.0,,1,0,0,1,1
1789662428166.0,0.26,0.1363909,0.22253251,9.863514,0.0007635809,0.0007635809,-0.0,-60.600002,2.325,8.925,9.86696668808635,0.001079866464749054,0.13616180473985554,0.2244950687984949,9.864134798338085,11.0554072,76.9271226,374.7000122070313,,57.541,,,405.0,,1,0,0,1,1
1789662428176.0,0.27,0.1363909,0.22253251,9.863514,0.0007635809,0.0007635809,-0.0,-60.600002,2.325,8.925,9.86696668808635,0.001079866464749054,0.13646388821673083,0.2216754030376164,9.863268825251028,11.0554072,76.9271226,374.7000122070313,,57.541,,,405.0,,1,0,0,1,1
1789662428186.0,0.28,0.1363909,0.22253251,9.863514,0.0007635809,0.0007635809,-0.0,-60.600002,2.325,8.925,9.86696668808635,0.001079866464749054,0.13650804512715878,0.22120897409005866,9.863132776991826,11.0554072,76.9271226,374.7000122070313,,57.541,,,405.0,,1,0,0,1,1
1789662428196.0,0.29,0.1363909,0.22253251,9.863514,0.00030543236,-0.00045814854,-0.0007635809,-60.600002,2.325,8.925,9.86696668808635,0.0009414057584719307,0.1364663767119576,0.22180933307089948,9.863295161582014,11.0554072,76.9271226,374.7000122070313,,57.541,,,405.0,,1,0,0,1,1
1789662428206.0,0.3,0.1363909,0.22253251,9.863514,0.00030543236,-0.00045814854,-0.0007635809,-60.600002,2.325,8.925,9.86696668808635,0.0009414057584719307,0.1364810438452667,0.22223891480788996,9.863364729276142,11.0554072,76.9271226,374.7000122070313,,57.541,,,405.0,,1,0,0,1,1
1789662428216.0,0.31,0.1363909,0.22253251,9.863514,0.00030543236,-0.00045814854,-0.0007635809,-61.275,1.8750001,9.075001,9.86696668808635,0.0009414057584719307,0.13653898349930266,0.22220274405643517,9.86329638557784,11.0554072,76.9271226,374.7000122070313,,57.541,,,405.0,,1,0,0,1,1
1789662428226.0,0.32,0.1363909,0.22253251,9.863514,0.00030543236,-0.00045814854,-0.0007635809,-61.275,1.8750001,9.075001,9.86696668808635,0.0009414057584719307,0.13647733244867824,0.2223796660258968,9.863392842839637,11.0554072,76.9271226,374.7000122070313,,57.541,,,405.0,,1,0,0,1,1
1789662428236.0,0.33,0.1363909,0.22253251,9.863514,0.00030543236,-0.00045814854,-0.0007635809,-61.275,1.8750001,9.075001,9.86696668808635,0.0009414057584719307,0.13611930280223183,0.22368966286528671,9.8640211854994,11.0554072,76.9271226,374.7000122070313,,57.541,,,405.0,,1,0,0,1,1
1789662428246.0,0.34,0.1363909,0.22253251,9.863514,0.00030543236,-0.00045814854,-0.0007635809,-61.275,1.8750001,9.075001,9.86696668808635,0.0009414057584719307,0.13544139212855746,0.22640741950986684,9.865265627698182,11.0554072,76.9271226,374.7000122070313,,57.541,,,405.0,,1,0,0,1,1
1789662428256.0,0.35,0.13369897,0.23389842,9.868599,0.00030543236,-0.00045814854,-0.0007635809,-61.275,1.8750001,9.075001,9.872275832261705,0.0009414057584719307,0.13463142893656974,0.22982521331425582,9.86679855078633,11.0554072,76.9271226,374.7000122070313,,57.541,,,405.0,,1,0,0,1,1
1789662428266.0,0.36,0.13369897,0.23389842,9.868599,0.00030543236,-0.00045814854,-0.0007635809,-61.275,1.8750001,9.075001,9.872275832261705,0.0009414057584719307,0.1339717985363715,0.23273638377306427,9.868090379383307,11.0554072,76.9271226,374.7000122070313,,57.541,,,405.0,,1,0,0,1,1
1789662428276.0,0.37,0.13369897,0.23389842,9.868599,0.00030543236,-0.00045814854,-0.0007635809,-61.275,1.8750001,9.075001,9.872275832261705,0.0009414057584719307,0.13363742812000337,0.23431014861521743,9.868783542492915,11.0554072,76.9271226,374.7000122070313,,57.541,,,405.0,,1,0,0,1,1
1789662428286.0,0.38,0.13369897,0.23389842,9.868599,0.00030543236,-0.00045814854,-0.0007635809,-61.275,1.8750001,9.075001,9.872275832261705,0.0009414057584719307,0.1335832030152057,0.23460057493701272,9.868908338045495,11.0554072,76.9271226,374.7000122070313,,57.541,,,405.0,,1,0,0,1,1
1789662428296.0,0.39,0.13369897,0.23389842,9.868599,0.00030543236,-0.00045814854,0.00045814854,-61.275,1.8750001,9.075001,9.872275832261705,0.0007163023774520316,0.13361426519785577,0.2343177050713046,9.868780179019318,11.0554072,76.9271226,374.7000122070313,,57.541,,,405.0,,1,0,0,1,1
1789662428306.0,0.4,0.13369897,0.23389842,9.868599,0.00030543236,-0.00045814854,0.00045814854,-61.275,1.8750001,9.075001,9.872275832261705,0.0007163023774520316,0.13357295692628934,0.23414989839745343,9.86870342999437,11.0554072,76.9271226,374.7000122070313,,57.541,,,405.0,,1,0,0,1,1
1789662428316.0,0.41,0.13369897,0.23389842,9.868599,0.00030543236,-0.00045814854,0.00045814854,-60.525,2.1000001,9.150001,9.872275832261705,0.0007163023774520316,0.13348922646732203,0.23422060669456396,9.868734651778778,11.0554072,76.9271226,374.7000122070313,,57.541,,,405.0,,1,0,0,1,1
1789662428326.0,0.42,0.13369897,0.23389842,9.868599,0.00030543236,-0.00045814854,0.00045814854,-60.525,2.1000001,9.150001,9.872275832261705,0.0007163023774520316,0.13357526675713574,0.2340619063137367,9.868670298357829,11.0554072,76.9271226,374.7000122070313,,57.541,,,405.0,,1,0,0,1,1
1789662428336.0,0.43,0.13369897,0.23389842,9.868599,0.00030543236,-0.00045814854,0.00045814854,-60.525,2.1000001,9.150001,9.872275832261705,0.0007163023774520316,0.1340568284290266,0.23307635006738442,9.86824598145665,11.0554072,76.9271226,374.7000122070313,,57.541,,,405.0,,1,0,0,1,1
1789662428346.0,0.44,0.13369897,0.23389842,9.868599,0.00030543236,-0.00045814854,0.00045814854,-60.525,2.1000001,9.150001,9.872275832261705,0.0007163023774520316,0.13496134526723697,0.23111283967247667,9.867386134624233,11.0554072,76.9271226,374.7000122070313,,57.541,,,405.0,,1,0,0,1,1
1789662428356.0,0.45,0.1372882,0.22582264,9.865009,0.00030543236,-0.00045814854,0.00045814854,-60.525,2.1000001,9.150001,9.868548347385081,0.0007163023774520316,0.13604275742197333,0.22868627002180156,9.866303044119086,11.0554072,76.9271226,374.7000122070313,,57.541,,,405.0,,1,0,0,1,1
1789662428366.0,0.46,0.1372882,0.22582264,9.865009,0.00030543236,-0.00045814854,0.00045814854,-60.525,2.1000001,9.150001,9.868548347385081,0.0007163023774520316,0.13693052223205582,0.226641992196625,9.865361212383663,11.0554072,76.9271226,374.7000122070313,,57.541,,,405.0,,1,0,0,1,1
1789662428376.0,0.47,0.1372882,0.22582264,9.865009,0.00030543236,-0.00045814854,0.00045814854,-60.525,2.1000001,9.150001,9.868548347385081,0.0007163023774520316,0.1373894296094583,0.2255498006134904,9.864827243102932,11.0554072,76.9271226,374.7000122070313,,57.541,,,405.0,,1,0,0,1,1
1789662428386.0,0.48,0.1372882,0.22582264,9.865009,0.00030543236,-0.00045814854,0.00045814854,-60.525,2.1000001,9.150001,9.868548347385081,0.0007163023774520316,0.1374661449822202,0.22535277186129732,9.864720372489199,11.0554072,76.9271226,374.7000122070313,,57.541,,,405.0,,1,0,0,1,1
1789662428396.0,0.49,0.1372882,0.22582264,9.865009,0.00030543236,-0.00045814854,0.00045814854,-60.525,2.1000001,9.150001,9.868548347385081,0.0007163023774520316,0.1374043558492457,0.22553610339574848,9.864862188567743,11.0554072,76.9271226,374.7000122070313,,57.541,,,405.0,,1,0,0,1,1
1789662428406.0,0.5,0.1372882,0.22582264,9.865009,0.00030543236,-0.00045814854,0.00045814854,-60.525,2.1000001,9.150001,9.868548347385081,0.0007163023774520316,0.1374147775264626,0.22561603017776524,9.865037812059994,11.0554072,76.9271226,374.7000122070313,,57.541,,,405.0,,1,0,0,1,1
1789662428416.0,0.51,0.1372882,0.22582264,9.865009,0.00030543236,-0.00045814854,0.00045814854,-60.525,2.1000001,8.925,9.868548347385081,0.0007163023774520316,0.1374904285447923,0.22553274250088745,9.865120635894009,11.0554072,76.9271226,374.7000122070313,,57.541,,,405.0,,1,0,0,1,1
1789662428426.0,0.52,0.1372882,0.22582264,9.865009,0.00030543236,-0.00045814854,0.00045814854,-60.525,2.1000001,8.925,9.868548347385081,0.0007163023774520316,0.1374067330933607,0.2256648446588957,9.865093663845679,11.0554072,76.9271226,374.7000122070313,,57.541,,,405.0,,1,0,0,1,1
1789662428436.0,0.53,0.1372882,0.22582264,9.865009,0.00030543236,-0.00045814854,0.00045814854,-60.525,2.1000001,8.925,9.868548347385081,0.0007163023774520316,0.13690907197205704,0.22647765989961754,9.865000473569973,11.0554072,76.9271226,374.7000122070313,,57.541,,,405.0,,1,0,0,1,1
1789662428446.0,0.54,0.1372882,0.22582264,9.865009,0.00030543236,-0.00045814854,0.00045814854,-60.525,2.1000001,8.925,9.868548347385081,0.0007163023774520316,0.13594925068106478,0.22808199576493465,9.86489041384289,11.0554072,76.9271226,374.7000122070313,,57.541,,,405.0,,1,0,0,1,1
1789662428456.0,0.55,0.13339986,0.2324029,9.864711,0.00030543236,-0.00045814854,0.00045814854,-60.525,2.1000001,8.925,9.868349899760213,0.0007163023774520316,0.13477462775708066,0.23006483041609846,9.864793287646428,11.0554072,76.9271226,374.7000122070313,,57.541,,,405.0,,1,0,0,1,1
1789662428466.0,0.56,0.13339986,0.2324029,9.864711,0.00030543236,-0.00045814854,0.00045814854,-60.525,2.1000001,8.925,9.868349899760213,0.0007163023774520316,0.13377845665915525,0.23175005002722934,9.86472065035407,11.0554072,76.9271226,374.7000122070313,,57.541,,,405.0,,1,0,0,1,1
1789662428476.0,0.57,0.13339986,0.2324029,9.864711,0.00030543236,-0.00045814854,0.00045814854,-60.525,2.1000001,8.925,9.868349899760213,0.0007163023774520316,0.13323231018611614,0.23267003656603813,9.864676950298083,11.0554072,76.9271226,374.7000122070313,,57.541,,,405.0,,1,0,0,1,1
1789662428486.0,0.58,0.13339986,0.2324029,9.864711,0.00030543236,-0.00045814854,0.00045814854,-60.525,2.1000001,8.925,9.868349899760213,0.0007163023774520316,0.13313010623559168,0.23284148631010285,9.864667932813747,11.0554072,76.9271226,374.7000122070313,,57.541,,,405.0,,1,0,0,1,1
1789662428496.0,0.59,0.13339986,0.2324029,9.864711,-0.00030543236,0.00015271618,0.00045814854,-60.525,2.1000001,8.925,9.868349899760213,0.0005714116229768989,0.13325516368954354,0.2326463574514245,9.864698727179153,11.0554072,76.9271226,374.7000122070313,,57.541,,,405.0,,1,0,0,1,1
1789662428506.0,0.6,0.13339986,0.2324029,9.864711,-0.00030543236,0.00015271618,0.00045814854,-60.525,2.1000001,8.925,9.868349899760213,0.0005714116229768989,0.13337743588141523,0.23247784004579056,9.86475940897711,11.0554072,76.9271226,374.7000122070313,,57.541,,,405.0,,1,0,0,1,1
1789662428516.0,0.61,0.13339986,0.2324029,9.864711,-0.00030543236,0.00015271618,0.00045814854,-60.675003,2.025,8.700001,9.868349899760213,0.0005714116229768989,0.13340835552453856,0.23245916852093967,9.864808400206604,11.0554072,76.9271226,374.7000122070313,,57.541,,,405.0,,1,0,0,1,1
1789662428526.0,0.62,0.13339986,0.2324029,9.864711,-0.00030543236,0.00015271618,0.00045814854,-60.675003,2.025,8.700001,9.868349899760213,0.0005714116229768989,0.13341637249290034,0.2324198284488755,9.86477587770399,11.0554072,76.9271226,374.7000122070313,,57.541,,,405.0,,1,0,0,1,1
1789662428536.0,0.63,0.13339986,0.2324029,9.864711,-0.00030543236,0.00015271618,0.00045814854,-60.675003,2.025,8.700001,9.868349899760213,0.0005714116229768989,0.1335256641925499,0.23209962305368873,9.864601262232604,11.0554072,76.9271226,374.7000122070313,,57.541,,,405.0,,1,0,0,1,1
1789662428546.0,0.64,0.13339986,0.2324029,9.864711,-0.00030543236,0.00015271618,0.00045814854,-60.675003,2.025,8.700001,9.868349899760213,0.0005714116229768989,0.13379250408276405,0.23140186971205332,9.864286147843131,11.0554072,76.9271226,374.7000122070313,,57.541,,,405.0,,1,0,0,1,1
1789662428556.0,0.65,0.13459627,0.22941187,9.863514,-0.00030543236,0.00015271618,0.00045814854,-60.675003,2.025,8.700001,9.867099593608591,0.0005714116229768989,0.13415328670594154,0.2304976358778799,9.863915095680369,11.0554072,76.9271226,374.7000122070313,,57.541,,,405.0,,1,0,0,1,1
1789662428566.0,0.66,0.13459627,0.22941187,9.863514,-0.00030543236,0.00015271618,0.00045814854,-60.675003,2.025,8.700001,9.867099593608591,0.0005714116229768989,0.13447483415616973,0.2297065388123839,9.863612723701927,11.0554072,76.9271226,374.7000122070313,,57.541,,,405.0,,1,0,0,1,1
1789662428576.0,0.67,0.13459627,0.22941187,9.863514,-0.00030543236,0.00015271618,0.00045814854,-60.675003,2.025,8.700001,9.867099593608591,0.0005714116229768989,0.13465440251327157,0.22926728163331117,9.863463526761238,11.0554072,76.9271226,374.7000122070313,,57.541,,,405.0,,1,0,0,1,1
1789662428586.0,0.68,0.13459627,0.22941187,9.863514,-0.00030543236,0.00015271618,0.00045814854,-60.675003,2.025,8.700001,9.867099593608591,0.0005714116229768989,0.13468326791873012,0.22919458154589226,9.863459355627427,11.0554072,76.9271226,374.7000122070313,,57.541,,,405.0,,1,0,0,1,1
1789662428596.0,0.69,0.13459627,0.22941187,9.863514,-0.00030543236,0.00015271618,0.00045814854,-60.675003,2.025,8.700001,9.867099593608591,0.0005714116229768989,0.1346322842583052,0.22931799237763165,9.863514464629791,11.0554072,76.9271226,374.7000122070313,,57.541,,,405.0,,1,0,0,1,1
1789662428606.0,0.7,0.13459627,0.22941187,9.863514,-0.0009162971,0.0007635809,-0.0007635809,-60.675003,2.025,8.700001,9.867099593608591,0.0014162316043493841,0.13458740059831892,0.22943420955224791,9.863532032000231,11.0554072,76.9271226,374.7000122070313,,57.541,,,405.0,,1,0,0,1,1
1789662428616.0,0.71,0.13459627,0.22941187,9.863514,-0.0009162971,0.0007635809,-0.0007635809,-60.675003,2.025,8.700001,9.867099593608591,0.0014162316043493841,0.13459067416605044,0.22944138337115486,9.863475274820928,11.0554072,76.9271226,374.7000122070313,,57.541,,,405.0,,1,0,0,1,1
1789662428626.0,0.72,0.13459627,0.22941187,9.863514,-0.0009162971,0.0007635809,-0.0007635809,-61.050003,2.325,7.9500003,9.867099593608591,0.0014162316043493841,0.13462167681337311,0.22937757712268275,9.8634008029401,11.0554072,76.9271226,374.7000122070313,,57.541,,,405.0,,1,0,0,1,1
1789662428636.0,0.73,0.13459627,0.22941187,9.863514,-0.0009162971,0.0007635809,-0.0007635809,-61.050003,2.325,7.9500003,9.867099593608591,0.0014162316043493841,0.1346215694086056,0.22936540757652565,9.863431447507898,11.0554072,76.9271226,374.7000122070313,,57.541,,,405.0,,1,0,0,1,1
1789662428646.0,0.74,0.13459627,0.22941187,9.863514,-0.0009162971,0.0007635809,-0.0007635809,-61.050003,2.325,7.9500003,9.867099593608591,0.0014162316043493841,0.13454067491442312,0.2295113294997146,9.8636748039247,11.0554072,76.9271226,374.7000122070313,,57.541,,,405.0,,1,0,0,1,1
1789662428656.0,0.75,0.13459627,0.22941187,9.863514,-0.0009162971,0.0007635809,-0.0007635809,-61.050003,2.325,7.9500003,9.867099593608591,0.0014162316043493841,0.1343797325610388,0.22982260586065506,9.86413424842994,11.0554072,76.9271226,374.7000122070313,,57.541,,,405.0,,1,0,0,1,1
1789662428666.0,0.76,0.13399807,0.23060828,9.865309,-0.0009162971,0.0007635809,-0.0007635809,-61.050003,2.325,7.9500003,9.868913685256816,0.0014162316043493841,0.1341953925497273,0.23019607373497344,9.86468381908219,11.0554072,76.9271226,374.7000122070313,,57.541,,,405.0,,1,0,0,1,1
1789662428676.0,0.77,0.13399807,0.23060828,9.865309,-0.0009162971,0.0007635809,-0.0007635809,-61.050003,2.325,7.9500003,9.868913685256816,0.0014162316043493841,0.1340611017843074,0.23049014509922727,9.865141347838627,11.0554072,76.9271226,374.7000122070313,,57.541,,,405.0,,1,0,0,1,1
1789662428686.0,0.78,0.13399807,0.23060828,9.865309,-0.0009162971,0.0007635809,-0.0007635809,-61.050003,2.325,7.9500003,9.868913685256816,0.0014162316043493841,0.13401042674820174,0.23062701158728288,9.865387289799202,11.0554072,76.9271226,374.7000122070313,,57.541,,,405.0,,1,0,0,1,1
1789662428696.0,0.79,0.13399807,0.23060828,9.865309,-0.0009162971,0.0007635809,-0.0007635809,-61.050003,2.325,7.9500003,9.868913685256816,0.0014162316043493841,0.13401002593248634,0.23064218541618367,9.865430313877281,11.0554072,76.9271226,374.7000122070313,,57.541,,,405.0,,1,0,0,1,1
1789662428706.0,0.8,0.13399807,0.23060828,9.865309,-0.0009162971,0.00015271618,-0.0007635809,-61.050003,2.325,7.9500003,9.868913685256816,0.0012024884190490203,0.13398985542906536,0.2306405838863464,9.865372788988436,11.0554072,76.9271226,374.7000122070313,,57.541,,,405.0,,1,0,0,1,1
1789662428716.0,0.81,0.13399807,0.23060828,9.865309,-0.0009162971,0.00015271618,-0.0007635809,-60.300003,1.8750001,8.025001,9.868913685256816,0.0012024884190490203,0.13391341642233773,0.2306945037027035,9.865319579802204,11.0554072,76.9271226,374.7000122070313,,57.541,,,405.0,,1,0,0,1,1
1789662428726.0,0.82,0.13399807,0.23060828,9.865309,-0.0009162971,0.00015271618,-0.0007635809,-60.300003,1.8750001,8.025001,9.868913685256816,0.0012024884190490203,0.133835728816647,0.23076340858563738,9.86530821425612,11.0554072,76.9271226,374.7000122070313,,57.541,,,405.0,,1,0,0,1,1
1789662428736.0,0.83,0.13399807,0.23060828,9.865309,-0.0009162971,0.00015271618,-0.0007635809,-60.300003,1.8750001,8.025001,9.868913685256816,0.0012024884190490203,0.13389479133756094,0.23070279511177422,9.86530369794516,11.0554072,76.9271226,374.7000122070313,,57.541,,,405.0,,1,0,0,1,1
1789662428746.0,0.84,0.13399807,0.23060828,9.865309,-0.0009162971,0.00015271618,-0.0007635809,-60.300003,1.8750001,8.025001,9.868913685256816,0.0012024884190490203,0.1342220216914543,0.23037026577334876,9.865246961179258,11.0554072,76.9271226,374.7000122070313,,57.541,,,405.0,,1,0,0,1,1
1789662428756.0,0.85,0.13399807,0.23060828,9.865309,-0.0009162971,0.00015271618,-0.0007635809,-60.300003,1.8750001,8.025001,9.868913685256816,0.0012024884190490203,0.13482645780055544,0.22975787088037508,9.865112837700213,11.0554072,76.9271226,374.7000122070313,,57.541,,,405.0,,1,0,0,1,1
1789662428766.0,0.86,0.1363909,0.22821546,9.864711,-0.0009162971,0.00015271618,-0.0007635809,-60.300003,1.8750001,8.025001,9.868293058442621,0.0012024884190490203,0.13555270478931403,0.22903649577748342,9.864933512339917,11.0554072,76.9271226,374.7000122070313,,57.541,,,405.0,,1,0,0,1,1
1789662428776.0,0.87,0.1363909,0.22821546,9.864711,-0.0009162971,0.00015271618,-0.0007635809,-60.300003,1.8750001,8.025001,9.868293058442621,0.0012024884190490203,0.1361669027434594,0.22845405354633164,9.864773409838586,11.0554072,76.9271226,374.7000122070313,,57.541,,,405.0,,1,0,0,1,1
1789662428786.0,0.88,0.1363909,0.22821546,9.864711,-0.0009162971,0.00015271618,-0.0007635809,-60.300003,1.8750001,8.025001,9.868293058442621,0.0012024884190490203,0.13650730042124753,0.22816135684261962,9.864681465841505,11.0554072,76.9271226,374.7000122070313,,57.541,,,405.0,,1,0,0,1,1
1789662428796.0,0.89,0.1363909,0.22821546,9.864711,-0.0009162971,0.00015271618,-0.0007635809,-60.300003,1.8750001,8.025001,9.868293058442621,0.0012024884190490203,0.13657171887844377,0.22811567023243273,9.864662287202412,11.0554072,76.9271226,374.7000122070313,,57.541,,,405.0,,1,0,0,1,1
1789662428806.0,0.9,0.1363909,0.22821546,9.864711,0.00015271618,0.0007635809,0.00045814854,-60.300003,1.8750001,8.025001,9.868293058442621,0.000903481105050202,0.13648119425459526,0.22814347254690737,9.864684710666673,11.0554072,76.9271226,374.7000122070313,,57.541,,,405.0,,1,0,0,1,1
1789662428816.0,0.91,0.1363909,0.22821546,9.864711,0.00015271618,0.0007635809,0.00045814854,-60.300003,1.8750001,8.025001,9.868293058442621,0.000903481105050202,0.13637469525973653,0.22810518227031626,9.864711708269994,11.0554072,76.9271226,374.7000122070313,,57.541,,,405.0,,1,0,0,1,1
1789662428826.0,0.92,0.1363909,0.22821546,9.864711,0.00015271618,0.0007635809,0.00045814854,-60.975002,1.8750001,9.225,9.868293058442621,0.000903481105050202,0.13632866127395696,0.22802806021097538,9.864723862371493,11.0554072,76.9271226,374.7000122070313,,57.541,,,405.0,,1,0,0,1,1
1789662428836.0,0.93,0.1363909,0.22821546,9.864711,0.00015271618,0.0007635809,0.00045814854,-60.975002,1.8750001,9.225,9.868293058442621,0.000903481105050202,0.13634474812904038,0.22810234142132368,9.864722581053934,11.0554072,76.9271226,374.7000122070313,,57.541,,,405.0,,1,0,0,1,1
1789662428846.0,0.94,0.1363909,0.22821546,9.864711,0.00015271618,0.0007635809,0.00045814854,-60.975002,1.8750001,9.225,9.868293058442621,0.000903481105050202,0.13638533921703275,0.22853296787398408,9.864718185023474,11.0554072,76.9271226,374.7000122070313,,57.541,,,405.0,,1,0,0,1,1
1789662428856.0,0.95,0.1363909,0.22821546,9.864711,0.00015271618,0.0007635809,0.00045814854,-60.975002,1.8750001,9.225,9.868293058442621,0.000903481105050202,0.13641414955128614,0.22935161309115573,9.864716414961984,11.0554072,76.9271226,374.7000122070313,,57.541,,,405.0,,1,0,0,1,1
1789662428866.0,0.96,0.1363909,0.23150559,9.864711,0.00015271618,0.0007635809,0.00045814854,-60.975002,1.8750001,9.225,9.868369694601284,0.000903481105050202,0.1364160681105557,0.23034673054418212,9.864713816670276,11.0554072,76.9271226,374.7000122070313,,57.541,,,405.0,,1,0,0,1,1
1789662428876.0,0.97,0.1363909,0.23150559,9.864711,0.00015271618,0.0007635809,0.00045814854,-60.975002,1.8750001,9.225,9.868369694601284,0.000903481105050202,0.1363963695511706,0.23118836581283106,9.864704005805203,11.0554072,76.9271226,374.7000122070313,,57.541,,,405.0,,1,0,0,1,1
1789662428886.0,0.98,0.1363909,0.23150559,9.864711,0.00015271618,0.0007635809,0.00045814854,-60.975002,1.8750001,9.225,9.868369694601284,0.000903481105050202,0.13637180308384728,0.23164969900746382,9.86468866041641,11.0554072,76.9271226,374.7000122070313,,57.541,,,405.0,,1,0,0,1,1
1789662428896.0,0.99,0.1363909,0.23150559,9.864711,0.00015271618,0.0007635809,0.00045814854,-60.975002,1.8750001,9.225,9.868369694601284,0.000903481105050202,0.13636202044144313,0.23173579564026017,9.86468270940331,11.0554072,76.9271226,374.7000122070313,,57.541,,,405.0,,1,0,0,1,1
1789662428906.0,1.0,0.1363909,0.23150559,9.864711,-0.00045814854,-0.00045814854,0.00045814854,-60.975002,1.8750001,9.225,9.868369694601284,0.000793536548693502,0.13638068775806977,0.23162754980765937,9.864705193935883,11.0554072,76.9271226,374.7000122070313,,57.541,,,405.0,,1,0,0,1,1
1789662428916.0,1.01,0.1363909,0.23150559,9.864711,-0.00045814854,-0.00045814854,0.00045814854,-61.125004,1.8750001,8.925,9.868369694601284,0.000793536548693502,0.13642369242368818,0.23151851537862195,9.864757067396948,11.0554072,76.9271226,374.7000122070313,,57.541,,,405.0,,1,0,0,1,1
1789662428926.0,1.02,0.1363909,0.23150559,9.864711,-0.00045814854,-0.00045814854,0.00045814854,-61.125004,1.8750001,8.925,9.868369694601284,0.000793536548693502,0.1364596580588123,0.23148740449431846,9.864801345941375,11.0554072,76.9271226,374.7000122070313,,57.541,,,405.0,,1,0,0,1,1
1789662428936.0,1.03,0.1363909,0.23150559,9.864711,-0.00045814854,-0.00045814854,0.00045814854,-61.125004,1.8750001,8.925,9.868369694601284,0.000793536548693502,0.13643602956060083,0.23148455783686417,9.864768536508814,11.0554072,76.9271226,374.7000122070313,,57.541,,,405.0,,1,0,0,1,1
1789662428946.0,1.04,0.1363909,0.23150559,9.864711,-0.00045814854,-0.00045814854,0.00045814854,-61.125004,1.8750001,8.925,9.868369694601284,0.000793536548693502,0.1363083471351895,0.23141202117229173,9.864597608162489,11.0554072,76.9271226,374.7000122070313,,57.541,,,405.0,,1,0,0,1,1
1789662428956.0,1.05,0.1363909,0.23150559,9.864711,-0.00045814854,-0.00045814854,0.00045814854,-61.125004,1.8750001,8.925,9.868369694601284,0.000793536548693502,0.13607803000848098,0.23122064441381943,9.864289774532558,11.0554072,76.9271226,374.7000122070313,,57.541,,,405.0,,1,0,0,1,1
1789662428966.0,1.06,0.13549358,0.23060828,9.863514,-0.00045814854,-0.00045814854,0.00045814854,-61.125004,1.8750001,8.925,9.867139763742165,0.000793536548693502,0.1358051931971065,0.2309516284134459,9.863926992409537,11.0554072,76.9271226,374.7000122070313,,57.541,,,405.0,,1,0,0,1,1
1789662428976.0,1.07,0.13549358,0.23060828,9.863514,-0.00045814854,-0.00045814854,0.00045814854,-61.125004,1.8750001,8.925,9.867139763742165,0.000793536548693502,0.13557660497590998,0.23070128502011486,9.863627183838778,11.0554072,76.9271226,374.7000122070313,,57.541,,,405.0,,1,0,0,1,1
1789662428986.0,1.08,0.13549358,0.23060828,9.863514,-0.00045814854,-0.00045814854,0.00045814854,-61.125004,1.8750001,8.925,9.867139763742165,0.000793536548693502,0.13545090535680998,0.23054987203638425,9.863467196580382,11.0554072,76.9271226,374.7000122070313,,57.541,,,405.0,,1,0,0,1,1
1789662428996.0,1.09,0.13549358,0.23060828,9.863514,-0.00045814854,-0.00045814854,0.00045814854,-61.125004,1.8750001,8.925,9.867139763742165,0.000793536548693502,0.13542732828757686,0.23051642064063146,9.863439081926744,11.0554072,76.9271226,374.7000122070313,,57.541,,,405.0,,1,0,0,1,1
1789662429006.0,1.1,0.13549358,0.23060828,9.863514,0.00030543236,0.0007635809,0.00045814854,-61.125004,1.8750001,8.925,9.867139763742165,0.0009414057584719307,0.13546008634435272,0.2305648321378548,9.863473087189544,11.0554072,76.9271226,374.7000122070313,,57.541,,,405.0,,1,0,0,1,1
1789662429016.0,1.11,0.13549358,0.23060828,9.863514,0.00030543236,0.0007635809,0.00045814854,-61.125004,1.8750001,8.925,9.867139763742165,0.0009414057584719307,0.13549797374633304,0.23063732943140428,9.863500128478512,11.0554072,76.9271226,374.7000122070313,,57.541,,,405.0,,1,0,0,1,1
1789662429026.0,1.12,0.13549358,0.23060828,9.863514,0.00030543236,0.0007635809,0.00045814854,-60.075,1.95,7.275,9.867139763742165,0.0009414057584719307,0.13551416263196361,0.23068087884424995,9.863500717796535,11.0554072,76.9271226,374.7000122070313,,57.541,,,405.0,,1,0,0,1,1
1789662429036.0,1.13,0.13549358,0.23060828,9.863514,0.00030543236,0.0007635809,0.00045814854,-60.075,1.95,7.275,9.867139763742165,0.0009414057584719307,0.13550976788607302,0.23065774889606322,9.863508237939602,11.0554072,76.9271226,374.7000122070313,,57.541,,,405.0,,1,0,0,1,1
1789662429046.0,1.14,0.13549358,0.23060828,9.863514,0.00030543236,0.0007635809,0.00045814854,-60.075,1.95,7.275,9.867139763742165,0.0009414057584719307,0.1354989079499362,0.23055287672469818,9.863571657643474,11.0554072,76.9271226,374.7000122070313,,57.541,,,405.0,,1,0,0,1,1
1789662429056.0,1.15,0.13549358,0.23060828,9.863514,0.00030543236,0.0007635809,0.00045814854,-60.075,1.95,7.275,9.867139763742165,0.0009414057584719307,0.13549223071931227,0.23038418296702062,9.863709443638456,11.0554072,76.9271226,374.7000122070313,,57.541,,,405.0,,1,0,0,1,1
1789662429066.0,1.16,0.13549358,0.23001008,9.864112,0.00030543236,0.0007635809,0.00045814854,-60.075,1.95,7.275,9.867723582248685,0.0009414057584719307,0.13549034048960482,0.23020236295863236,9.863890354119826,11.0554072,76.9271226,374.7000122070313,,57.541,,,405.0,,1,0,0,1,1
1789662429076.0,1.17,0.13549358,0.23001008,9.864112,0.00030543236,0.0007635809,0.00045814854,-60.075,1.95,7.275,9.867723582248685,0.0009414057584719307,0.1354880961729777,0.23006614004632436,9.864054389686943,11.0554072,76.9271226,374.7000122070313,,57.541,,,405.0,,1,0,0,1,1
1789662429086.0,1.18,0.13549358,0.23001008,9.864112,0.00030543236,0.0007635809,0.00045814854,-60.075,1.95,7.275,9.867723582248685,0.0009414057584719307,0.13548331418241533,0.23000444720683863,9.864153067841729,11.0554072,76.9271226,374.7000122070313,,57.541,,,405.0,,1,0,0,1,1
1789662429096.0,1.19,0.13549358,0.23001008,9.864112,0.00030543236,0.0007635809,0.00045814854,-60.075,1.95,7.275,9.867723582248685,0.0009414057584719307,0.1354816050996803,0.22999751184335354,9.864174584591263,11.0554072,76.9271226,374.7000122070313,,57.541,,,405.0,,1,0,0,1,1
1789662429106.0,1.2,0.13549358,0.23001008,9.864112,0.00030543236,0.0007635809,0.00045814854,-60.075,1.95,7.275,9.867723582248685,0.0009414057584719307,0.13549222935291572,0.22999657556912742,9.86414015465578,11.0554072,76.9271226,374.7000122070313,,57.541,,,405.0,,1,0,0,1,1
1789662429116.0,1.21,0.13549358,0.23001008,9.864112,0.00030543236,0.0,-0.0007635809,-60.225002,2.4,7.1250005,9.867723582248685,0.0008224017980160182,0.13551640974911863,0.2299692389641368,9.864086283928296,11.0554072,76.9271226,374.7000122070313,,57.541,,,405.0,,1,0,0,1,1
1789662429126.0,1.22,0.13549358,0.23001008,9.864112,0.00030543236,0.0,-0.0007635809,-60.225002,2.4,7.1250005,9.867723582248685,0.0008224017980160182,0.13553682723909882,0.22993562618396973,9.86405185776889,11.0554072,76.9271226,374.7000122070313,,57.541,,,405.0,,1,0,0,1,1
1789662429136.0,1.23,0.13549358,0.23001008,9.864112,0.00030543236,0.0,-0.0007635809,-60.225002,2.4,7.1250005,9.867723582248685,0.0008224017980160182,0.1355200151673963,0.22996443675144684,9.86407155266975,11.0554072,76.9271226,374.7000122070313,,57.541,,,405.0,,1,0,0,1,1
1789662429146.0,1.24,0.13549358,0.23001008,9.864112,0.00030543236,0.0,-0.0007635809,-60.225002,2.4,7.1250005,9.867723582248685,0.0008224017980160182,0.13543635334547557,0.23012424971566156,9.864165500168582,11.0554072,76.9271226,374.7000122070313,,57.541,,,405.0,,1,0,0,1,1
1789662429156.0,1.25,0.13549358,0.23001008,9.864112,0.00030543236,0.0,-0.0007635809,-60.225002,2.4,7.1250005,9.867723582248685,0.0008224017980160182,0.13528602633199538,0.2304221425534804,9.86432449086264,11.0554072,76.9271226,374.7000122070313,,57.541,,,405.0,,1,0,0,1,1
1789662429166.0,1.26,0.13489537,0.23120649,9.864711,0.00030543236,0.0,-0.0007635809,-60.225002,2.4,7.1250005,9.868342125979751,0.0008224017980160182,0.13510753686284638,0.23078199562316473,9.864506323228602,11.0554072,76.9271226,374.7000122070313,,57.541,,,405.0,,1,0,0,1,1
1789662429176.0,1.27,0.13489537,0.23120649,9.864711,0.00030543236,0.0,-0.0007635809,-60.225002,2.4,7.1250005,9.868342125979751,0.0008224017980160182,0.1349561289034106,0.2310885555369091,9.8646560767188,11.0554072,76.9271226,374.7000122070313,,57.541,,,405.0,,1,0,0,1,1
1789662429186.0,1.28,0.13489537,0.23120649,9.864711,0.00030543236,0.0,-0.0007635809,-60.225002,2.4,7.1250005,9.868342125979751,0.0008224017980160182,0.13486835163511104,0.23126284994050517,9.864738669829377,11.0554072,76.9271226,374.7000122070313,,57.541,,,405.0,,1,0,0,1,1
1789662429196.0,1.29,0.13489537,0.23120649,9.864711,0.00030543236,0.0,-0.0007635809,-60.225002,2.4,7.1250005,9.868342125979751,0.0008224017980160182,0.1348440295260328,0.23130366578209274,9.864756174030724,11.0554072,76.9271226,374.7000122070313,,57.541,,,405.0,,1,0,0,1,1
1789662429206.0,1.3,0.13489537,0.23120649,9.864711,0.00030543236,0.0,-0.0007635809,-60.225002,2.4,7.1250005,9.868342125979751,0.0008224017980160182,0.13485837195517716,0.23126646755771163,9.86473701483281,11.0554072,76.9271226,374.7000122070313,,57.541,,,405.0,,1,0,0,1,1
1789662429216.0,1.31,0.13489537,0.23120649,9.864711,0.00030543236,0.0,-0.0007635809,-60.225002,2.4,7.1250005,9.868342125979751,0.0008224017980160182,0.13488680742891712,0.23121136935792325,9.86471120533784,11.0554072,76.9271226,374.7000122070313,,57.541,,,405.0,,1,0,0,1,1
1789662429226.0,1.32,0.13489537,0.23120649,9.864711,0.00030543236,0.0006108647,-0.0007635809,-60.300003,1.95,8.025001,9.868342125979751,0.0010244512673065857,0.13491705751478292,0.23116999382110848,9.864694267576786,11.0554072,76.9271226,374.7000122070313,,57.541,,,405.0,,1,0,0,1,1
1789662429236.0,1.33,0.13489537,0.23120649,9.864711,0.00030543236,0.0006108647,-0.0007635809,-60.300003,1.95,8.025001,9.868342125979751,0.0010244512673065857,0.13494117407338263,0.2311500717678084,9.864688617401896,11.0554072,76.9271226,374.7000122070313,,57.541,,,405.0,,1,0,0,1,1
1789662429246.0,1.34,0.13489537,0.23120649,9.864711,0.00030543236,0.0006108647,-0.0007635809,-60.300003,1.95,8.025001,9.868342125979751,0.0010244512673065857,0.13494289352098182,0.23115756128059592,9.864693797803502,11.0554072,76.9271226,374.7000122070313,,57.541,,,405.0,,1,0,0,1,1
1789662429256.0,1.35,0.13489537,0.23120649,9.864711,0.00030543236,0.0006108647,-0.0007635809,-60.300003,1.95,8.025001,9.868342125979751,0.0010244512673065857,0.13490193290319252,0.23120363405500027,9.864711486606625,11.0554072,76.9271226,374.7000122070313,,57.541,,,405.0,,1,0,0,1,1
1789662429266.0,1.36,0.13489537,0.23120649,9.864711,0.00030543236,0.0006108647,-0.0007635809,-60.300003,1.95,8.025001,9.868342125979751,0.0010244512673065857,0.13482122981860847,0.23128315644675435,9.864739133360118,11.0554072,76.9271226,374.7000122070313,,57.541,,,405.0,,1,0,0,1,1
1789662429276.0,1.37,0.13489537,0.23120649,9.864711,-0.00045814854,-0.00045814854,0.00045814854,-60.300003,1.95,8.025001,9.868342125979751,0.000793536548693502,0.13475611466286366,0.23134467296346867,9.86475935002061,11.0554072,76.9271226,374.7000122070313,,57.541,,,405.0,,1,0,0,1,1
1789662429286.0,1.38,0.13489537,0.23120649,9.864711,-0.00045814854,-0.00045814854,0.00045814854,-60.300003,1.95,8.025001,9.868342125979751,0.000793536548693502,0.13480857557501758,0.23129157061005676,9.864739756976578,11.0554072,76.9271226,374.7000122070313,,57.541,,,405.0,,1,0,0,1,1
1789662429296.0,1.39,0.13489537,0.23120649,9.864711,-0.00045814854,-0.00045814854,0.00045814854,-60.300003,1.95,8.025001,9.868342125979751,0.000793536548693502,0.135067968637643,0.23103653802262775,9.864651579303139,11.0554072,76.9271226,374.7000122070313,,57.541,,,405.0,,1,0,0,1,1
1789662429306.0,1.4,0.13489537,0.23120649,9.864711,-0.00045814854,-0.00045814854,0.00045814854,-60.300003,1.95,8.025001,9.868342125979751,0.000793536548693502,0.13553093126728852,0.230579270033592,9.86449647156223,11.0554072,76.9271226,374.7000122070313,,57.541,,,405.0,,1,0,0,1,1
1789662429316.0,1.41,0.13668999,0.22941187,9.864112,-0.00045814854,-0.00045814854,0.00045814854,-60.300003,1.95,8.025001,9.867726156922227,0.000793536548693502,0.1360734596319504,0.2300362520340359,9.864316293099948,11.0554072,76.9271226,374.7000122070313,,57.541,,,405.0,,1,0,0,1,1
1789662429326.0,1.42,0.13668999,0.22941187,9.864112,-0.00045814854,-0.00045814854,0.00045814854,-60.075,2.325,7.05,9.867726156922227,0.000793536548693502,0.13651854730752888,0.22957938840958575,9.864170307845816,11.0554072,76.9271226,374.7000122070313,,57.541,,,405.0,,1,0,0,1,1
1789662429336.0,1.43,0.13668999,0.22941187,9.864112,-0.00045814854,-0.00045814854,0.00045814854,-60.075,2.325,7.05,9.867726156922227,0.000793536548693502,0.1367530350600256,0.22932673100741682,9.86409523474135,11.0554072,76.9271226,374.7000122070313,,57.541,,,405.0,,1,0,0,1,1
1789662429346.0,1.44,0.13668999,0.22941187,9.864112,-0.00045814854,-0.00045814854,0.00045814854,-60.075,2.325,7.05,9.867726156922227,0.000793536548693502,0.1367936330739943,0.22927861102761185,9.864082722013544,11.0554072,76.9271226,374.7000122070313,,57.541,,,405.0,,1,0,0,1,1
1789662429356.0,1.45,0.13668999,0.22941187,9.864112,-0.00045814854,-0.00045814854,0.00045814854,-60.075,2.325,7.05,9.867726156922227,0.000793536548693502,0.136749836153907,0.22934474823465673,9.864093171571028,11.0554072,76.9271226,374.7000122070313,,57.541,,,405.0,,1,0,0,1,1
1789662429366.0,1.46,0.13668999,0.22941187,9.864112,0.00030543236,-0.00030543236,-0.0007635809,-60.075,2.325,7.05,9.867726156922227,0.000877287663149978,0.1367245402654428,0.2294223721408257,9.864092405325804,11.0554072,76.9271226,374.7000122070313,,57.541,,,405.0,,1,0,0,1,1
1789662429376.0,1.47,0.13668999,0.22941187,9.864112,0.00030543236,-0.00030543236,-0.0007635809,-60.075,2.325,7.05,9.867726156922227,0.000877287663149978,0.13673583259479763,0.22945585060196916,9.864080940114691,11.0554072,76.9271226,374.7000122070313,,57.541,,,405.0,,1,0,0,1,1
1789662429386.0,1.48,0.13668999,0.22941187,9.864112,0.00030543236,-0.00030543236,-0.0007635809,-60.075,2.325,7.05,9.867726156922227,0.000877287663149978,0.13671436058268638,0.22944519613659112,9.86409384025392,11.0554072,76.9271226,374.7000122070313,,57.541,,,405.0,,1,0,0,1,1
1789662429396.0,1.49,0.13668999,0.22941187,9.864112,0.00030543236,-0.00030543236,-0.0007635809,-60.075,2.325,7.05,9.867726156922227,0.000877287663149978,0.136571332569275,0.22941846376504874,9.86417096561815,11.0554072,76.9271226,374.7000122070313,,57.541,,,405.0,,1,0,0,1,1
1789662429406.0,1.5,0.13668999,0.22941187,9.864112,0.00030543236,-0.00030543236,-0.0007635809,-60.075,2.325,7.05,9.867726156922227,0.000877287663149978,0.13628269561122625,0.22940045835933282,9.86431964792361,11.0554072,76.9271226,374.7000122070313,,57.541,,,405.0,,1,0,0,1,1
1789662429416.0,1.51,0.13549358,0.22941187,9.864711,0.00030543236,-0.00030543236,-0.0007635809,-60.075,2.325,7.05,9.868308438118415,0.000877287663149978,0.1359217535003521,0.22939843850034633,9.864500752982034,11.0554072,76.9271226,374.7000122070313,,57.541,,,405.0,,1,0,0,1,1
1789662429426.0,1.52,0.13549358,0.22941187,9.864711,0.00030543236,-0.00030543236,-0.0007635809,-60.075,2.4750001,7.5000005,9.868308438118415,0.000877287663149978,0.13561193061592175,0.22940571665626885,9.864652565697577,11.0554072,76.9271226,374.7000122070313,,57.541,,,405.0,,1,0,0,1,1
1789662429436.0,1.53,0.13549358,0.22941187,9.864711,0.00030543236,-0.00030543236,-0.0007635809,-60.075,2.4750001,7.5000005,9.868308438118415,0.000877287663149978,0.1354406526641639,0.22941264121155897,9.86473349127086,11.0554072,76.9271226,374.7000122070313,,57.541,,,405.0,,1,0,0,1,1
1789662429446.0,1.54,0.13549358,0.22941187,9.864711,0.00030543236,-0.00030543236,-0.0007635809,-60.075,2.4750001,7.5000005,9.868308438118415,0.000877287663149978,0.13540842715452603,0.22941467107388563,9.864746999749912,11.0554072,76.9271226,374.7000122070313,,57.541,,,405.0,,1,0,0,1,1
1789662429456.0,1.55,0.13549358,0.22941187,9.864711,0.00030543236,-0.00030543236,-0.0007635809,-60.075,2.4750001,7.5000005,9.868308438118415,0.000877287663149978,0.13544858549644945,0.2294135361480427,9.864730183868337,11.0554072,76.9271226,374.7000122070313,,57.541,,,405.0,,1,0,0,1,1
1789662429466.0,1.56,0.13549358,0.22941187,9.864711,0.00030543236,-0.00045814854,0.00045814854,-60.075,2.4750001,7.5000005,9.868308438118415,0.0007163023774520316,0.13548854978932348,0.229413291700064,9.864719857229074,11.0554072,76.9271226,374.7000122070313,,57.541,,,405.0,,1,0,0,1,1
1789662429476.0,1.57,0.13549358,0.22941187,9.864711,0.00030543236,-0.00045814854,0.00045814854,-60.075,2.4750001,7.5000005,9.868308438118415,0.0007163023774520316,0.13549863364604509,0.229415495387155,9.864724779296576,11.0554072,76.9271226,374.7000122070313,,57.541,,,405.0,,1,0,0,1,1
1789662429486.0,1.58,0.13549358,0.22941187,9.864711,0.00030543236,-0.00045814854,0.00045814854,-60.075,2.4750001,7.5000005,9.868308438118415,0.0007163023774520316,0.1354980471195122,0.22941721075213548,9.864722992237477,11.0554072,76.9271226,374.7000122070313,,57.541,,,405.0,,1,0,0,1,1
1789662429496.0,1.59,0.13549358,0.22941187,9.864711,0.00030543236,-0.00045814854,0.00045814854,-60.075,2.4750001,7.5000005,9.868308438118415,0.0007163023774520316,0.13552456653817746,0.22941346095649812,9.86468389513176,11.0554072,76.9271226,374.7000122070313,,57.541,,,405.0,,1,0,0,1,1
1789662429506.0,1.6,0.13549358,0.22941187,9.864711,0.00030543236,-0.00045814854,0.00045814854,-60.075,2.4750001,7.5000005,9.868308438118415,0.0007163023774520316,0.13559614753179872,0.22940290546253192,9.864598319167175,11.0554072,76.9271226,374.7000122070313,,57.541,,,405.0,,1,0,0,1,1
1789662429516.0,1.61,0.13579269,0.22941187,9.864411,0.00030543236,-0.00045814854,0.00045814854,-60.075,2.4750001,7.5000005,9.868012658974214,0.0007163023774520316,0.13569313732634183,0.22939253318302824,9.86449349894413,11.0554072,76.9271226,374.7000122070313,,57.541,,,405.0,,1,0,0,1,1
1789662429526.0,1.62,0.13579269,0.22941187,9.864411,0.00030543236,-0.00045814854,0.00045814854,-60.075,2.4750001,7.5000005,9.868012658974214,0.0007163023774520316,0.1357724784664503,0.22939580214706304,9.864418723759439,11.0554072,76.9271226,374.7000122070313,,57.541,,,405.0,,1,0,0,1,1
1789662429536.0,1.63,0.13579269,0.22941187,9.864411,0.00030543236,-0.00045814854,0.00045814854,-60.075,2.4750001,7.5000005,9.868012658974214,0.0007163023774520316,0.13580131575321044,0.22942155091245378,9.864408760993463,11.0554072,76.9271226,374.7000122070313,,57.541,,,405.0,,1,0,0,1,1
1789662429546.0,1.64,0.13579269,0.22941187,9.864411,0.00030543236,-0.00045814854,0.00045814854,-60.075,2.4750001,7.5000005,9.868012658974214,0.0007163023774520316,0.1357838137146403,0.22945903237548881,9.86445073585666,11.0554072,76.9271226,374.7000122070313,,57.541,,,405.0,,1,0,0,1,1
1789662429556.0,1.65,0.13579269,0.22941187,9.864411,0.00030543236,-0.00045814854,0.00045814854,-60.075,2.4750001,7.5000005,9.868012658974214,0.0007163023774520316,0.13576094111362286,0.22947330049986195,9.864482085224518,11.0554072,76.9271226,374.7000122070313,,57.541,,,405.0,,1,0,0,1,1
1789662429566.0,1.66,0.13579269,0.22941187,9.864411,-0.0006108647,-0.00015271618,0.00045814854,-60.525,2.4750001,8.325001,9.868012658974214,0.0007787027661720575,0.13578068242590635,0.22942551114769905,9.864431860063922,11.0554072,76.9271226,374.7000122070313,,57.541,,,405.0,,1,0,0,1,1
1789662429576.0,1.67,0.13579269,0.22941187,9.864411,-0.0006108647,-0.00015271618,0.00045814854,-60.525,2.4750001,8.325001,9.868012658974214,0.0007787027661720575,0.13585378512673965,0.22931661053899544,9.864290759847893,11.0554072,76.9271226,374.7000122070313,,57.541,,,405.0,,1,0,0,1,1
1789662429586.0,1.68,0.13579269,0.22941187,9.864411,-0.0006108647,-0.00015271618,0.00045814854,-60.525,2.4750001,8.325001,9.868012658974214,0.0007787027661720575,0.13592329341233053,0.22922515897610482,9.864164499490029,11.0554072,76.9271226,374.7000122070313,,57.541,,,405.0,,1,0,0,1,1
1789662429596.0,1.69,0.13579269,0.22941187,9.864411,-0.0006108647,-0.00015271618,0.00045814854,-60.525,2.4750001,8.325001,9.868012658974214,0.0007787027661720575,0.1358787089992376,0.22929391309108427,9.864251694787443,11.0554072,76.9271226,374.7000122070313,,57.541,,,405.0,,1,0,0,1,1
1789662429606.0,1.7,0.13579269,0.22941187,9.864411,-0.0006108647,-0.00015271618,0.00045814854,-60.525,2.4750001,8.325001,9.868012658974214,0.0007787027661720575,0.13562390769224614,0.22964475862089737,9.864724037970603,11.0554072,76.9271226,374.7000122070313,,57.541,,,405.0,,1,0,0,1,1
1789662429616.0,1.71,0.13579269,0.22941187,9.864411,-0.0006108647,-0.00015271618,0.00045814854,-60.525,2.4750001,8.325001,9.868012658974214,0.0007787027661720575,0.13516072679632204,0.23026898147686198,9.865575295557397,11.0554072,76.9271226,374.7000122070313,,57.541,,,405.0,,1,0,0,1,1
1789662429626.0,1.72,0.13399807,0.2318047,9.867702,-0.0006108647,-0.00015271618,0.00045814854,-60.525,2.4750001,8.325001,9.871333834011986,0.0007787027661720575,0.1346155338318737,0.23099221669692202,9.866572744333201,11.0554072,76.9271226,374.7000122070313,,57.541,,,405.0,,1,0,0,1,1
1789662429636.0,1.73,0.13399807,0.2318047,9.867702,-0.0006108647,-0.00015271618,0.00045814854,-60.525,2.4750001,8.325001,9.871333834011986,0.0007787027661720575,0.13416842626593242,0.231572080098154,9.867386980052508,11.0554072,76.9271226,374.7000122070313,,57.541,,,405.0,,1,0,0,1,1
1789662429646.0,1.74,0.13399807,0.2318047,9.867702,-0.0006108647,-0.00015271618,0.00045814854,-60.525,2.4750001,8.325001,9.871333834011986,0.0007787027661720575,0.133934052147269,0.23186307495367678,9.867811043260994,11.0554072,76.9271226,374.7000122070313,,57.541,,,405.0,,1,0,0,1,1
1789662429656.0,1.75,0.13399807,0.2318047,9.867702,-0.0006108647,-0.00015271618,0.00045814854,-60.525,2.4750001,8.325001,9.871333834011986,0.0007787027661720575,0.13389502075743417,0.23190747712911097,9.867882263958244,11.0554072,76.9271226,374.7000122070313,,57.541,,,405.0,,1,0,0,1,1
1789662429666.0,1.76,0.13399807,0.2318047,9.867702,-0.0006108647,0.0007635809,-0.00030543236,-60.15,1.8750001,6.6000004,9.871333834011986,0.0010244512673065857,0.13393985418727034,0.2318744352042379,9.867809455219964,11.0554072,76.9271226,374.7000122070313,,57.541,,,405.0,,1,0,0,1,1
1789662429676.0,1.77,0.13399807,0.2318047,9.867702,-0.0006108647,0.0007635809,-0.00030543236,-60.15,1.8750001,6.6000004,9.871333834011986,0.0010244512673065857,0.13396396872506375,0.2319023360460995,9.867781854502994,11.0554072,76.9271226,374.7000122070313,,57.541,,,405.0,,1,0,0,1,1
1789662429686.0,1.78,0.13399807,0.2318047,9.867702,-0.0006108647,0.0007635809,-0.00030543236,-60.15,1.8750001,6.6000004,9.871333834011986,0.0010244512673065857,0.13394946779785166,0.23197191641205053,9.867818622300861,11.0554072,76.9271226,374.7000122070313,,57.541,,,405.0,,1,0,0,1,1
1789662429696.0,1.79,0.13399807,0.2318047,9.867702,-0.0006108647,0.0007635809,-0.00030543236,-60.15,1.8750001,6.6000004,9.871333834011986,0.0010244512673065857,0.13396839401636582,0.23190858207838883,9.867766439969804,11.0554072,76.9271226,374.7000122070313,,57.541,,,405.0,,1,0,0,1,1
1789662429706.0,1.8,0.13399807,0.2318047,9.867702,-0.0006108647,0.0007635809,-0.00030543236,-60.15,1.8750001,6.6000004,9.871333834011986,0.0010244512673065857,0.13411337500002218,0.23152020242123061,9.867439130539163,11.0554072,76.9271226,374.7000122070313,,57.541,,,405.0,,1,0,0,1,1
1789662429716.0,1.81,0.13399807,0.2318047,9.867702,-0.0006108647,0.0007635809,-0.00030543236,-60.15,1.8750001,6.6000004,9.871333834011986,0.0010244512673065857,0.13440998966175574,0.23077299464791792,9.8667908621498,11.0554072,76.9271226,374.7000122070313,,57.541,,,405.0,,1,0,0,1,1
1789662429726.0,1.82,0.13519448,0.22881366,9.865009,-0.0006108647,0.0007635809,-0.00030543236,-60.15,1.8750001,6.6000004,9.868588339195535,0.0010244512673065857,0.13478054628297154,0.2298597314115838,9.865982114160657,11.0554072,76.9271226,374.7000122070313,,57.541,,,405.0,,1,0,0,1,1
1789662429736.0,1.83,0.13519448,0.22881366,9.865009,-0.0006108647,0.0007635809,-0.00030543236,-60.15,1.8750001,6.6000004,9.868588339195535,0.0010244512673065857,0.1350914685239957,0.22908785650382216,9.865278722987334,11.0554072,76.9271226,374.7000122070313,,57.541,,,405.0,,1,0,0,1,1
1789662429746.0,1.84,0.13519448,0.22881366,9.865009,-0.0006108647,0.0007635809,-0.00030543236,-60.15,1.8750001,6.6000004,9.868588339195535,0.0010244512673065857,0.13524642219994512,0.22867407469742063,9.864872130973854,11.0554072,76.9271226,374.7000122070313,,57.541,,,405.0,,1,0,0,1,1
1789662429756.0,1.85,0.13519448,0.22881366,9.865009,-0.0006108647,0.0007635809,-0.00030543236,-60.15,1.8750001,6.6000004,9.868588339195535,0.0010244512673065857,0.13524896040503823,0.22861767034601754,9.864776938614948,11.0554072,76.9271226,374.7000122070313,,57.541,,,405.0,,1,0,0,1,1
1789662429766.0,1.86,0.13519448,0.22881366,9.865009,-0.0006108647,0.0007635809,-0.00030543236,-60.15,1.8750001,6.6000004,9.868588339195535,0.0010244512673065857,0.1351895768619748,0.22874172721378047,9.864872614858655,11.0554072,76.9271226,374.7000122070313,,57.541,,,405.0,,1,0,0,1,1
1789662429776.0,1.87,0.13519448,0.22881366,9.865009,0.00030543236,0.0007635809,-0.0007635809,-60.300003,1.95,7.5750003,9.868588339195535,0.0011222301494010886,0.1351737957469865,0.22884213338359602,9.86501730273329,11.0554072,76.9271226,374.7000122070313,,57.541,,,405.0,,1,0,0,1,1
1789662429786.0,1.88,0.13519448,0.22881366,9.865009,0.00030543236,0.0007635809,-0.0007635809,-60.300003,1.95,7.5750003,9.868588339195535,0.0011222301494010886,0.13524207218289716,0.22882254961540255,9.86512265848474,11.0554072,76.9271226,374.7000122070313,,57.541,,,405.0,,1,0,0,1,1
1789662429796.0,1.89,0.13519448,0.22881366,9.865009,0.00030543236,0.0007635809,-0.0007635809,-60.300003,1.95,7.5750003,9.868588339195535,0.0011222301494010886,0.13532954920165857,0.22873784562680774,9.865150608023205,11.0554072,76.9271226,374.7000122070313,,57.541,,,405.0,,1,0,0,1,1
1789662429806.0,1.9,0.13519448,0.22881366,9.865009,0.00030543236,0.0007635809,-0.0007635809,-60.300003,1.95,7.5750003,9.868588339195535,0.0011222301494010886,0.13529427974856711,0.2287390009337003,9.865076474952197,11.0554072,76.9271226,374.7000122070313,,57.541,,,405.0,,1,0,0,1,1
1789662429816.0,1.91,0.13519448,0.22881366,9.865009,0.00030543236,0.0007635809,-0.0007635809,-60.300003,1.95,7.5750003,9.868588339195535,0.0011222301494010886,0.13500992089859573,0.22895990005464587,9.864879466552855,11.0554072,76.9271226,374.7000122070313,,57.541,,,405.0,,1,0,0,1,1
1789662429826.0,1.92,0.13519448,0.22881366,9.865009,0.00030543236,0.0007635809,-0.0007635809,-60.300003,1.95,7.8,9.868588339195535,0.0011222301494010886,0.13447038391908214,0.22941402965251745,9.864571738593058,11.0554072,76.9271226,374.7000122070313,,57.541,,,405.0,,1,0,0,1,1
1789662429836.0,1.93,0.13310076,0.23060828,9.863813,0.00030543236,0.0007635809,-0.0007635809,-60.300003,1.95,7.8,9.86740608721898,0.0011222301494010886,0.13382254983080713,0.22997227705946416,9.864221614837863,11.0554072,76.9271226,374.7000122070313,,57.541,,,405.0,,1,0,0,1,1
1789662429846.0,1.94,0.13310076,0.23060828,9.863813,0.00030543236,0.0007635809,-0.0007635809,-60.300003,1.95,7.8,9.86740608721898,0.0011222301494010886,0.13328377581527806,0.23044450750470052,9.863928115265443,11.0554072,76.9271226,374.7000122070313,,57.541,,,405.0,,1,0,0,1,1
1789662429856.0,1.95,0.13310076,0.23060828,9.863813,0.00030543236,0.0007635809,-0.0007635809,-60.300003,1.95,7.8,9.86740608721898,0.0011222301494010886,0.13300159914251397,0.23070296520720215,9.863761107418123,11.0554072,76.9271226,374.7000122070313,,57.541,,,405.0,,1,0,0,1,1
1789662429866.0,1.96,0.13310076,0.23060828,9.863813,0.00030543236,0.0007635809,-0.0007635809,-60.300003,1.95,7.8,9.86740608721898,0.0011222301494010886,0.13296973595183295,0.23074818850499393,9.863722853144433,11.0554072,76.9271226,374.7000122070313,,57.541,,,405.0,,1,0,0,1,1
1789662429876.0,1.97,0.13310076,0.23060828,9.863813,0.00030543236,-0.00015271618,-0.0007635809,-60.300003,1.95,7.8,9.86740608721898,0.000836460966820193,0.1330593924154204,0.23067632578573719,9.863762226268184,11.0554072,76.9271226,374.7000122070313,,57.541,,,405.0,,1,0,0,1,1
1789662429886.0,1.98,0.13310076,0.23060828,9.863813,0.00030543236,-0.00015271618,-0.0007635809,-60.300003,1.95,7.8,9.86740608721898,0.000836460966820193,0.13312473027564029,0.23059497790863734,9.863818826388913,11.0554072,76.9271226,374.7000122070313,,57.541,,,405.0,,1,0,0,1,1
1789662429896.0,1.99,0.13310076,0.23060828,9.863813,0.00030543236,-0.00015271618,-0.0007635809,-60.300003,1.95,7.8,9.86740608721898,0.000836460966820193,0.1330993749706637,0.23056111215391317,9.863854924174822,11.0554072,76.9271226,374.7000122070313,,57.541,,,405.0,,1,0,0,1,1
1789662429906.0,2.0,0.13310076,0.23060828,9.863813,0.00030543236,-0.00015271618,-0.0007635809,-60.300003,1.95,7.8,9.86740608721898,0.000836460966820193,0.1330293740739853,0.23057348619481743,9.863857982815675,11.0554072,76.9271226,374.7000122070313,,57.541,,,405.0,,1,0,0,1,1
1789662429916.0,2.01,0.13310076,0.23060828,9.863813,0.00030543236,-0.00015271618,-0.0007635809,-60.300003,1.95,7.8,9.86740608721898,0.000836460966820193,0.13303415898742027,0.23060226245442164,9.863827624176103,11.0554072,76.9271226,374.7000122070313,,57.541,,,405.0,,1,0,0,1,1
1789662429926.0,2.02,0.13310076,0.23060828,9.863813,0.00030543236,-0.00015271618,-0.0007635809,-60.750004,2.1750002,9.3,9.86740608721898,0.000836460966820193,0.13322071086128387,0.23062150290544978,9.863768087078745,11.0554072,76.9271226,374.7000122070313,,57.541,,,405.0,,1,0,0,1,1
1789662429936.0,2.03,0.13310076,0.23060828,9.863813,0.00030543236,-0.00015271618,-0.0007635809,-60.750004,2.1750002,9.3,9.86740608721898,0.000836460966820193,0.13360094880416232,0.23062351470481451,9.863691262928564,11.0554072,76.9271226,374.7000122070313,,57.541,,,405.0,,1,0,0,1,1
1789662429946.0,2.04,0.13459627,0.23060828,9.863514,0.00030543236,-0.00015271618,-0.0007635809,-60.750004,2.1750002,9.3,9.867127482854292,0.000836460966820193,0.1340703575069668,0.23061492938021064,9.863617882479229,11.0554072,76.9271226,374.7000122070313,,57.541,,,405.0,,1,0,0,1,1
1789662429956.0,2.05,0.13459627,0.23060828,9.863514,0.00030543236,-0.00015271618,-0.0007635809,-60.750004,2.1750002,9.3,9.867127482854292,0.000836460966820193,0.13447025036560173,0.23060580524337312,9.863565919129632,11.0554072,76.9271226,374.7000122070313,,57.541,,,405.0,,1,0,0,1,1
1789662429966.0,2.06,0.13459627,0.23060828,9.863514,0.00030543236,-0.00015271618,-0.0007635809,-60.750004,2.1750002,9.3,9.867127482854292,0.000836460966820193,0.1346876977702156,0.23060196621739382,9.863534340805762,11.0554072,76.9271226,374.7000122070313,,57.541,,,405.0,,1,0,0,1,1
1789662429976.0,2.07,0.13459627,0.23060828,9.863514,0.00030543236,-0.00045814854,-0.00045814854,-60.750004,2.1750002,9.3,9.867127482854292,0.0007163023774520316,0.13471460864562446,0.23060369942679967,9.863503073781873,11.0554072,76.9271226,374.7000122070313,,57.541,,,405.0,,1,0,0,1,1
1789662429986.0,2.08,0.13459627,0.23060828,9.863514,0.00030543236,-0.00045814854,-0.00045814854,-60.750004,2.1750002,9.3,9.867127482854292,0.0007163023774520316,0.134630903963607,0.23060823787220142,9.863457810995012,11.0554072,76.9271226,374.7000122070313,,57.541,,,405.0,,1,0,0,1,1
1789662429996.0,2.09,0.13459627,0.23060828,9.863514,0.00030543236,-0.00045814854,-0.00045814854,-60.750004,2.1750002,9.3,9.867127482854292,0.0007163023774520316,0.13454357499089534,0.23061233081507435,9.8634210895939,11.0554072,76.9271226,374.7000122070313,,57.541,,,405.0,,1,0,0,1,1
1789662430006.0,2.1,0.13459627,0.23060828,9.863514,0.00030543236,-0.00045814854,-0.00045814854,-60.750004,2.1750002,9.3,9.867127482854292,0.0007163023774520316,0.1345322722001281,0.2306133825634239,9.86345636570906,11.0554072,76.9271226,374.7000122070313,,57.541,,,405.0,,1,0,0,1,1
1789662430016.0,2.11,0.13459627,0.23060828,9.863514,0.00030543236,-0.00045814854,-0.00045814854,-60.750004,2.1750002,9.3,9.867127482854292,0.0007163023774520316,0.13462414173200146,0.2306100092651428,9.863627977225692,11.0554072,76.9271226,374.7000122070313,,57.541,,,405.0,,1,0,0,1,1
1789662430026.0,2.12,0.13459627,0.23060828,9.863514,0.00030543236,-0.00045814854,-0.00045814854,-60.300003,1.725,8.1,9.867127482854292,0.0007163023774520316,0.13479447966782424,0.23060318557788423,9.863940474538945,11.0554072,76.9271226,374.7000122070313,,57.541,,,405.0,,1,0,0,1,1
1789662430036.0,2.13,0.13519448,0.23060828,9.864711,0.00030543236,-0.00045814854,-0.00045814854,-60.300003,1.725,8.1,9.86833222179655,0.0007163023774520316,0.13498639513728058,0.23059741545009826,9.864311533506756,11.0554072,76.9271226,374.7000122070313,,57.541,,,405.0,,1,0,0,1,1
1789662430046.0,2.14,0.13519448,0.23060828,9.864711,0.00030543236,-0.00045814854,-0.00045814854,-60.300003,1.725,8.1,9.86833222179655,0.0007163023774520316,0.1351428029697479,0.23059955121407089,9.864613796907419,11.0554072,76.9271226,374.7000122070313,,57.541,,,405.0,,1,0,0,1,1
1789662430056.0,2.15,0.13519448,0.23060828,9.864711,0.00030543236,-0.00045814854,-0.00045814854,-60.300003,1.725,8.1,9.86833222179655,0.0007163023774520316,0.13523413279493907,0.2306135157023637,9.864758950137084,11.0554072,76.9271226,374.7000122070313,,57.541,,,405.0,,1,0,0,1,1
1789662430066.0,2.16,0.13519448,0.23060828,9.864711,0.00030543236,-0.00045814854,-0.00045814854,-60.300003,1.725,8.1,9.86833222179655,0.0007163023774520316,0.13526267773625839,0.23063313714903763,9.864755728008987,11.0554072,76.9271226,374.7000122070313,,57.541,,,405.0,,1,0,0,1,1
1789662430076.0,2.17,0.13519448,0.23060828,9.864711,0.00030543236,-0.00045814854,0.00045814854,-60.300003,1.725,8.1,9.86833222179655,0.0007163023774520316,0.13524466845857525,0.23064014026109886,9.864697169892,11.0554072,76.9271226,374.7000122070313,,57.541,,,405.0,,1,0,0,1,1
1789662430086.0,2.18,0.13519448,0.23060828,9.864711,0.00030543236,-0.00045814854,0.00045814854,-60.300003,1.725,8.1,9.86833222179655,0.0007163023774520316,0.13519400955664207,0.2306147574119817,9.86468955913375,11.0554072,76.9271226,374.7000122070313,,57.541,,,405.0,,1,0,0,1,1
1789662430096.0,2.19,0.13519448,0.23060828,9.864711,0.00030543236,-0.00045814854,0.00045814854,-60.300003,1.725,8.1,9.86833222179655,0.0007163023774520316,0.13512787679724939,0.23055815487787687,9.864770646565207,11.0554072,76.9271226,374.7000122070313,,57.541,,,405.0,,1,0,0,1,1
1789662430106.0,2.2,0.13519448,0.23060828,9.864711,0.00030543236,-0.00045814854,0.00045814854,-60.300003,1.725,8.1,9.86833222179655,0.0007163023774520316,0.13508603966438268,0.2305114930646895,9.864866651256927,11.0554072,76.9271226,374.7000122070313,,57.541,,,405.0,,1,0,0,1,1
1789662430116.0,2.21,0.13519448,0.23060828,9.864711,0.00030543236,-0.00045814854,0.00045814854,-60.300003,1.725,8.1,9.86833222179655,0.0007163023774520316,0.13513305556654723,0.23054820358825773,9.8648215077219,11.0554072,76.9271226,374.7000122070313,,57.541,,,405.0,,1,0,0,1,1
1789662430126.0,2.22,0.13519448,0.23060828,9.864711,0.00030543236,-0.00045814854,0.00045814854,-60.45,2.25,8.175,9.86833222179655,0.0007163023774520316,0.13532237140220624,0.23072928525312444,9.864497157393371,11.0554072,76.9271226,374.7000122070313,,57.541,,,405.0,,1,0,0,1,1
1789662430136.0,2.23,0.13519448,0.23060828,9.864711,0.00030543236,-0.00045814854,0.00045814854,-60.45,2.25,8.175,9.86833222179655,0.0007163023774520316,0.1356423427709364,0.23104660833182558,9.863887941656893,11.0554072,76.9271226,374.7000122070313,,57.541,,,405.0,,1,0,0,1,1
1789662430146.0,2.24,0.1363909,0.2318047,9.862318,0.00030543236,-0.00045814854,0.00045814854,-60.45,2.25,8.175,9.865984605181021,0.0007163023774520316,0.1359983999235955,0.23140642253817564,9.863155703749921,11.0554072,76.9271226,374.7000122070313,,57.541,,,405.0,,1,0,0,1,1
1789662430156.0,2.25,0.1363909,0.2318047,9.862318,0.00030543236,-0.00045814854,0.00045814854,-60.45,2.25,8.175,9.865984605181021,0.0007163023774520316,0.13626629775920293,0.23168347301418407,9.862538371415102,11.0554072,76.9271226,374.7000122070313,,57.541,,,405.0,,1,0,0,1,1
1789662430166.0,2.26,0.1363909,0.2318047,9.862318,0.00030543236,-0.00045814854,0.00045814854,-60.45,2.25,8.175,9.865984605181021,0.0007163023774520316,0.13638311419646362,0.2318105655425071,9.862198176821336,11.0554072,76.9271226,374.7000122070313,,57.541,,,405.0,,1,0,0,1,1
1789662430176.0,2.27,0.1363909,0.2318047,9.862318,0.00030543236,-0.00045814854,0.00045814854,-60.45,2.25,8.175,9.865984605181021,0.0007163023774520316,0.13639572478667097,0.23182606880623907,9.862135858817757,11.0554072,76.9271226,374.7000122070313,,57.541,,,405.0,,1,0,0,1,1
1789662430186.0,2.28,0.1363909,0.2318047,9.862318,-0.0006108647,-0.00045814854,-0.0007635809,-60.45,2.25,8.175,9.865984605181021,0.0010798664534353458,0.13641621602351534,0.23183340110447162,9.862228870123097,11.0554072,76.9271226,374.7000122070313,,57.541,,,405.0,,1,0,0,1,1
1789662430196.0,2.29,0.1363909,0.2318047,9.862318,-0.0006108647,-0.00045814854,-0.0007635809,-60.45,2.25,8.175,9.865984605181021,0.0010798664534353458,0.1365117359294761,0.23190085024686702,9.8623371887342,11.0554072,76.9271226,374.7000122070313,,57.541,,,405.0,,1,0,0,1,1
1789662430206.0,2.3,0.1363909,0.2318047,9.862318,-0.0006108647,-0.00045814854,-0.0007635809,-60.45,2.25,8.175,9.865984605181021,0.0010798664534353458,0.13661367216100617,0.23197985402051124,9.862383381768176,11.0554072,76.9271226,374.7000122070313,,57.541,,,405.0,,1,0,0,1,1
1789662430216.0,2.31,0.1363909,0.2318047,9.862318,-0.0006108647,-0.00045814854,-0.0007635809,-60.225002,2.025,8.925,9.865984605181021,0.0010798664534353458,0.13652903926265775,0.2319130946388503,9.862364881566938,11.0554072,76.9271226,374.7000122070313,,57.541,,,405.0,,1,0,0,1,1
1789662430226.0,2.32,0.1363909,0.2318047,9.862318,-0.0006108647,-0.00045814854,-0.0007635809,-60.225002,2.025,8.925,9.865984605181021,0.0010798664534353458,0.13607233047018105,0.23154516607745113,9.862319631232088,11.0554072,76.9271226,374.7000122070313,,57.541,,,405.0,,1,0,0,1,1
1789662430236.0,2.33,0.1363909,0.2318047,9.862318,-0.0006108647,-0.00045814854,-0.0007635809,-60.225002,2.025,8.925,9.865984605181021,0.0010798664534353458,0.13523404760428254,0.23086367585520173,9.862286837072144,11.0554072,76.9271226,374.7000122070313,,57.541,,,405.0,,1,0,0,1,1
1789662430246.0,2.34,0.13310076,0.22911277,9.862318,-0.0006108647,-0.00045814854,-0.0007635809,-60.225002,2.025,8.925,9.865876788548174,0.0010798664534353458,0.13423943042775338,0.2300494110170503,9.862286535030465,11.0554072,76.9271226,374.7000122070313,,57.541,,,405.0,,1,0,0,1,1
1789662430256.0,2.35,0.13310076,0.22911277,9.862318,-0.0006108647,-0.00045814854,-0.0007635809,-60.225002,2.025,8.925,9.865876788548174,0.0010798664534353458,0.13341935851855483,0.22937230312586718,9.862316462141143,11.0554072,76.9271226,374.7000122070313,,57.541,,,405.0,,1,0,0,1,1
1789662430266.0,2.36,0.13310076,0.22911277,9.862318,-0.0006108647,-0.00045814854,-0.0007635809,-60.225002,2.025,8.925,9.865876788548174,0.0010798664534353458,0.13298711908555472,0.2290102675377575,9.86235548546292,11.0554072,76.9271226,374.7000122070313,,57.541,,,405.0,,1,0,0,1,1
1789662430276.0,2.37,0.13310076,0.22911277,9.862318,-0.0006108647,-0.00045814854,-0.0007635809,-60.225002,2.025,8.925,9.865876788548174,0.0010798664534353458,0.13291222345763218,0.22894586216843393,9.862370508500172,11.0554072,76.9271226,374.7000122070313,,57.541,,,405.0,,1,0,0,1,1
1789662430286.0,2.38,0.13310076,0.22911277,9.862318,0.0,-0.00030543236,0.00045814854,-60.225002,2.025,8.925,9.865876788548174,0.0005506260175829881,0.13298991030244262,0.22901903846313132,9.862333146425806,11.0554072,76.9271226,374.7000122070313,,57.541,,,405.0,,1,0,0,1,1
1789662430296.0,2.39,0.13310076,0.22911277,9.862318,0.0,-0.00030543236,0.00045814854,-60.225002,2.025,8.925,9.865876788548174,0.0005506260175829881,0.13302932936335266,0.22907297753539743,9.862248198085576,11.0554072,76.9271226,374.7000122070313,,57.541,,,405.0,,1,0,0,1,1
1789662430306.0,2.4,0.13310076,0.22911277,9.862318,0.0,-0.00030543236,0.00045814854,-60.225002,2.025,8.925,9.865876788548174,0.0005506260175829881,0.1330022451995578,0.22906884280715994,9.862177431782085,11.0554072,76.9271226,374.7000122070313,,57.541,,,405.0,,1,0,0,1,1
1789662430316.0,2.41,0.13310076,0.22911277,9.862318,0.0,-0.00030543236,0.00045814854,-60.750004,2.025,7.8750005,9.865876788548174,0.0005506260175829881,0.13304742094181665,0.2290922522467064,9.862227991708043,11.0554072,76.9271226,374.7000122070313,,57.541,,,405.0,,1,0,0,1,1
1789662430326.0,2.42,0.13310076,0.22911277,9.862318,0.0,-0.00030543236,0.00045814854,-60.750004,2.025,7.8750005,9.865876788548174,0.0005506260175829881,0.13333832129981044,0.22926167195993546,9.862490114929892,11.0554072,76.9271226,374.7000122070313,,57.541,,,405.0,,1,0,0,1,1
1789662430336.0,2.43,0.13310076,0.22911277,9.862318,0.0,-0.00030543236,0.00045814854,-60.750004,2.025,7.8750005,9.865876788548174,0.0005506260175829881,0.1339188500152008,0.22961529926753166,9.86295720855868,11.0554072,76.9271226,374.7000122070313,,57.541,,,405.0,,1,0,0,1,1
1789662430346.0,2.44,0.13549358,0.23060828,9.864112,0.0,-0.00030543236,0.00045814854,-60.750004,2.025,7.8750005,9.867737544015334,0.0005506260175829881,0.1346403010292458,0.2300660290095869,9.863500342733934,11.0554072,76.9271226,374.7000122070313,,57.541,,,405.0,,1,0,0,1,1
1789662430356.0,2.45,0.13549358,0.23060828,9.864112,0.0,-0.00030543236,0.00045814854,-60.750004,2.025,7.8750005,9.867737544015334,0.0005506260175829881,0.13525628996951736,0.23045960309634309,9.863939607338011,11.0554072,76.9271226,374.7000122070313,,57.541,,,405.0,,1,0,0,1,1
1789662430366.0,2.46,0.13549358,0.23060828,9.864112,0.0,-0.00030543236,0.00045814854,-60.750004,2.025,7.8750005,9.867737544015334,0.0005506260175829881,0.1355946683716843,0.23068256889095365,9.864164509458963,11.0554072,76.9271226,374.7000122070313,,57.541,,,405.0,,1,0,0,1,1
1789662430376.0,2.47,0.13549358,0.23060828,9.864112,0.0,-0.00030543236,0.00045814854,-60.750004,2.025,7.8750005,9.867737544015334,0.0005506260175829881,0.13565835973455165,0.2307269954757782,9.864200632290508,11.0554072,76.9271226,374.7000122070313,,57.541,,,405.0,,1,0,0,1,1
1789662430386.0,2.48,0.13549358,0.23060828,9.864112,0.00030543236,-0.0,0.00015271618,-60.750004,2.025,7.8750005,9.867737544015334,0.0003414837597440938,0.13558355582545428,0.23066927618735383,9.864167389720516,11.0554072,76.9271226,374.7000122070313,,57.541,,,405.0,,1,0,0,1,1
1789662430396.0,2.49,0.13549358,0.23060828,9.864112,0.00030543236,-0.0,0.00015271618,-60.750004,2.025,7.8750005,9.867737544015334,0.0003414837597440938,0.135513752565763,0.23060015374085566,9.864168083069188,11.0554072,76.9271226,374.7000122070313,,57.541,,,405.0,,1,0,0,1,1
1789662430406.0,2.5,0.13549358,0.23060828,9.864112,0.00030543236,-0.0,0.00015271618,-60.750004,2.025,7.8750005,9.867737544015334,0.0003414837597440938,0.13549992437490913,0.23056984820243082,9.864202372743149,11.0554072,76.9271226,374.7000122070313,,57.541,,,405.0,,1,0,0,1,1
1789662430416.0,2.51,0.13549358,0.23060828,9.864112,0.00030543236,-0.0,0.00015271618,-60.45,1.725,9.075001,9.867737544015334,0.0003414837597440938,0.13549082280488026,0.23057889976381907,9.864166232415144,11.0554072,76.9271226,374.7000122070313,,57.541,,,405.0,,1,0,0,1,1
1789662430426.0,2.52,0.13549358,0.23060828,9.864112,0.00030543236,-0.0,0.00015271618,-60.45,1.725,9.075001,9.867737544015334,0.0003414837597440938,0.13540107658769826,0.23060220882353955,9.86393970517087,11.0554072,76.9271226,374.7000122070313,,57.541,,,405.0,,1,0,0,1,1
1789662430436.0,2.53,0.13549358,0.23060828,9.864112,0.00030543236,-0.0,0.00015271618,-60.45,1.725,9.075001,9.867737544015334,0.0003414837597440938,0.13519536317703215,0.23061739108365556,9.863497620130062,11.0554072,76.9271226,374.7000122070313,,57.541,,,405.0,,1,0,0,1,1
1789662430446.0,2.54,0.13459627,0.23060828,9.862318,0.00030543236,-0.0,0.00015271618,-60.45,1.725,9.075001,9.86593192089964,0.0003414837597440938,0.13492369820318922,0.2306183131826121,9.862952481973997,11.0554072,76.9271226,374.7000122070313,,57.541,,,405.0,,1,0,0,1,1
1789662430456.0,2.55,0.13459627,0.23060828,9.862318,0.00030543236,-0.0,0.00015271618,-60.45,1.725,9.075001,9.86593192089964,0.0003414837597440938,0.13468473184615676,0.23061207554486424,9.86248711319936,11.0554072,76.9271226,374.7000122070313,,57.541,,,405.0,,1,0,0,1,1
1789662430466.0,2.56,0.13459627,0.23060828,9.862318,0.00030543236,-0.0,0.00015271618,-60.45,1.725,9.075001,9.86593192089964,0.0003414837597440938,0.13455330719838426,0.23060828874266096,9.862231674473287,11.0554072,76.9271226,374.7000122070313,,57.541,,,405.0,,1,0,0,1,1
1789662430476.0,2.57,0.13459627,0.23060828,9.862318,0.00030543236,-0.0,0.00015271618,-60.45,1.725,9.075001,9.86593192089964,0.0003414837597440938,0.13453422306751434,0.2306102630866457,9.862189254068667,11.0554072,76.9271226,374.7000122070313,,57.541,,,405.0,,1,0,0,1,1
1789662430486.0,2.58,0.13459627,0.23060828,9.862318,0.00030543236,-0.00030543236,0.00045814854,-60.45,1.725,9.075001,9.86593192089964,0.0006296649408808392,0.13457304646156923,0.2306131763638534,9.86226118029711,11.0554072,76.9271226,374.7000122070313,,57.541,,,405.0,,1,0,0,1,1
1789662430496.0,2.59,0.13459627,0.23060828,9.862318,0.00030543236,-0.00030543236,0.00045814854,-60.45,1.725,9.075001,9.86593192089964,0.0006296649408808392,0.13460432868412564,0.23060928344533801,9.86233252222017,11.0554072,76.9271226,374.7000122070313,,57.541,,,405.0,,1,0,0,1,1
1789662430506.0,2.6,0.13459627,0.23060828,9.862318,0.00030543236,-0.00030543236,0.00045814854,-60.45,1.725,9.075001,9.86593192089964,0.0006296649408808392,0.1345967894934728,0.23059657277432424,9.862344410792725,11.0554072,76.9271226,374.7000122070313,,57.541,,,405.0,,1,0,0,1,1
1789662430516.0,2.61,0.13459627,0.23060828,9.862318,0.00030543236,-0.00030543236,0.00045814854,-60.45,1.725,9.075001,9.86593192089964,0.0006296649408808392,0.1345688856362575,0.2305849114537621,9.86231260816893,11.0554072,76.9271226,374.7000122070313,,57.541,,,405.0,,1,0,0,1,1
1789662430526.0,2.62,0.13459627,0.23060828,9.862318,0.00030543236,-0.00030543236,0.00045814854,-60.375004,2.1750002,8.400001,9.86593192089964,0.0006296649408808392,0.1345711055717959,0.23059362422080198,9.862297760499406,11.0554072,76.9271226,374.7000122070313,,57.541,,,405.0,,1,0,0,1,1
1789662430536.0,2.63,0.13459627,0.23060828,9.862318,0.00030543236,-0.00030543236,0.00045814854,-60.375004,2.1750002,8.400001,9.86593192089964,0.0006296649408808392,0.13464776118621447,0.2306389610854302,9.862355882251002,11.0554072,76.9271226,374.7000122070313,,57.541,,,405.0,,1,0,0,1,1
1789662430546.0,2.64,0.13459627,0.23060828,9.862318,0.00030543236,-0.00030543236,0.00045814854,-60.375004,2.1750002,8.400001,9.86593192089964,0.0006296649408808392,0.13480159946690604,0.2307188727892938,9.862499570161944,11.0554072,76.9271226,374.7000122070313,,57.541,,,405.0,,1,0,0,1,1
1789662430556.0,2.65,0.13519448,0.23090738,9.862916,0.00030543236,-0.00030543236,0.00045814854,-60.375004,2.1750002,8.400001,9.866544875923736,0.0006296649408808392,0.13498656838729162,0.2308088622223589,9.862690997008926,11.0554072,76.9271226,374.7000122070313,,57.541,,,405.0,,1,0,0,1,1
1789662430566.0,2.66,0.13519448,0.23090738,9.862916,0.00030543236,-0.00030543236,0.00045814854,-60.375004,2.1750002,8.400001,9.866544875923736,0.0006296649408808392,0.13513738495706112,0.23087656364806153,9.862867578446624,11.0554072,76.9271226,374.7000122070313,,57.541,,,405.0,,1,0,0,1,1
1789662430576.0,2.67,0.13519448,0.23090738,9.862916,0.00030543236,-0.00030543236,0.00045814854,-60.375004,2.1750002,8.400001,9.866544875923736,0.0006296649408808392,0.13521420490057992,0.23090559164164728,9.862977876301018,11.0554072,76.9271226,374.7000122070313,,57.541,,,405.0,,1,0,0,1,1
1789662430586.0,2.68,0.13519448,0.23090738,9.862916,0.00030543236,-0.00030543236,0.00045814854,-60.375004,2.1750002,8.400001,9.866544875923736,0.0006296649408808392,0.13522578925999001,0.2309080393638992,9.863001339136336,11.0554072,76.9271226,374.7000122070313,,57.541,,,405.0,,1,0,0,1,1
1789662430596.0,2.69,0.13519448,0.23090738,9.862916,0.00030543236,0.0007635809,-0.00030543236,-60.375004,2.1750002,8.400001,9.866544875923736,0.000877287663149978,0.1352137231625271,0.23091295363742653,9.862947982761774,11.0554072,76.9271226,374.7000122070313,,57.541,,,405.0,,1,0,0,1,1
1789662430606.0,2.7,0.13519448,0.23090738,9.862916,0.00030543236,0.0007635809,-0.00030543236,-60.375004,2.1750002,8.400001,9.866544875923736,0.000877287663149978,0.13521362895150957,0.23093789077988974,9.86285489033159,11.0554072,76.9271226,374.7000122070313,,57.541,,,405.0,,1,0,0,1,1
1789662430616.0,2.71,0.13519448,0.23090738,9.862916,0.00030543236,0.0007635809,-0.00030543236,-60.45,2.625,8.625,9.866544875923736,0.000877287663149978,0.1352250707447615,0.23096519010115418,9.862787927252207,11.0554072,76.9271226,374.7000122070313,,57.541,,,405.0,,1,0,0,1,1
1789662430626.0,2.72,0.13519448,0.23090738,9.862916,0.00030543236,0.0007635809,-0.00030543236,-60.45,2.625,8.625,9.866544875923736,0.000877287663149978,0.13521223535663027,0.23094427759446046,9.862832369859756,11.0554072,76.9271226,374.7000122070313,,57.541,,,405.0,,1,0,0,1,1
1789662430636.0,2.73,0.13519448,0.23090738,9.862916,0.00030543236,0.0007635809,-0.00030543236,-60.45,2.625,8.625,9.866544875923736,0.000877287663149978,0.1351347640915256,0.23082508475870964,9.863053429507016,11.0554072,76.9271226,374.7000122070313,,57.541,,,405.0,,1,0,0,1,1
1789662430646.0,2.74,0.13519448,0.23090738,9.862916,0.00030543236,0.0007635809,-0.00030543236,-60.45,2.625,8.625,9.866544875923736,0.000877287663149978,0.13498576282414937,0.23060164784464204,9.863441901853694,11.0554072,76.9271226,374.7000122070313,,57.541,,,405.0,,1,0,0,1,1
1789662430656.0,2.75,0.13459627,0.23001008,9.864411,0.00030543236,0.0007635809,-0.00030543236,-60.45,2.625,8.625,9.868010193028812,0.000877287663149978,0.1348054572375316,0.23032882689812534,9.86389601485149,11.0554072,76.9271226,374.7000122070313,,57.541,,,405.0,,1,0,0,1,1
1789662430666.0,2.76,0.13459627,0.23001008,9.864411,0.00030543236,0.0007635809,-0.00030543236,-60.45,2.625,8.625,9.868010193028812,0.000877287663149978,0.1346561203873563,0.23009242382959627,9.864273432407781,11.0554072,76.9271226,374.7000122070313,,57.541,,,405.0,,1,0,0,1,1
1789662430676.0,2.77,0.13459627,0.23001008,9.864411,0.00030543236,0.0007635809,-0.00030543236,-60.45,2.625,8.625,9.868010193028812,0.000877287663149978,0.13457809427638207,0.22995576186740044,9.864479714531749,11.0554072,76.9271226,374.7000122070313,,57.541,,,405.0,,1,0,0,1,1
1789662430686.0,2.78,0.13459627,0.23001008,9.864411,0.00030543236,0.0007635809,-0.0007635809,-60.45,2.625,8.625,9.868010193028812,0.0011222301494010886,0.1345648068874074,0.22992779894133583,9.864518431490227,11.0554072,76.9271226,374.7000122070313,,57.541,,,405.0,,1,0,0,1,1
1789662430696.0,2.79,0.13459627,0.23001008,9.864411,0.00030543236,0.0007635809,-0.0007635809,-60.45,2.625,8.625,9.868010193028812,0.0011222301494010886,0.13457639369878063,0.22997225194934814,9.864466346218268,11.0554072,76.9271226,374.7000122070313,,57.541,,,405.0,,1,0,0,1,1
1789662430706.0,2.8,0.13459627,0.23001008,9.864411,0.00030543236,0.0007635809,-0.0007635809,-60.45,2.625,8.625,9.868010193028812,0.0011222301494010886,0.13457735591909253,0.23003718319003782,9.864407187856045,11.0554072,76.9271226,374.7000122070313,,57.541,,,405.0,,1,0,0,1,1
1789662430716.0,2.81,0.13459627,0.23001008,9.864411,0.00030543236,0.0007635809,-0.0007635809,-58.65,2.5500002,4.425,9.868010193028812,0.0011222301494010886,0.13456684329528304,0.23007622414703222,9.864382352231132,11.0554072,76.9271226,374.7000122070313,,57.541,,,405.0,,1,0,0,1,1
1789662430726.0,2.82,0.13459627,0.23001008,9.864411,0.00030543236,0.0007635809,-0.0007635809,-58.65,2.5500002,4.425,9.868010193028812,0.0011222301494010886,0.13457912097962277,0.2300554919660722,9.864386603387452,11.0554072,76.9271226,374.7000122070313,,57.541,,,405.0,,1,0,0,1,1
1789662430736.0,2.83,0.13459627,0.23001008,9.864411,0.00030543236,0.0007635809,-0.0007635809,-58.65,2.5500002,4.425,9.868010193028812,0.0011222301494010886,0.13465420609389767,0.2299589573893918,9.864396086597088,11.0554072,76.9271226,374.7000122070313,,57.541,,,405.0,,1,0,0,1,1
1789662430746.0,2.84,0.13459627,0.23001008,9.864411,0.00030543236,0.0007635809,-0.0007635809,-58.65,2.5500002,4.425,9.868010193028812,0.0011222301494010886,0.13480075451027743,0.22979831024399083,9.864398547744544,11.0554072,76.9271226,374.7000122070313,,57.541,,,405.0,,1,0,0,1,1
1789662430756.0,2.85,0.13519448,0.22941187,9.864411,0.00030543236,0.0007635809,-0.0007635809,-58.65,2.5500002,4.425,9.86800444519764,0.0011222301494010886,0.13498173023776272,0.2296152111515339,9.864403069233601,11.0554072,76.9271226,374.7000122070313,,57.541,,,405.0,,1,0,0,1,1
1789662430766.0,2.86,0.13519448,0.22941187,9.864411,0.00030543236,0.0007635809,-0.0007635809,-58.65,2.5500002,4.425,9.86800444519764,0.0011222301494010886,0.13513684497772835,0.22946317075387293,9.864425265331926,11.0554072,76.9271226,374.7000122070313,,57.541,,,405.0,,1,0,0,1,1
1789662430776.0,2.87,0.13519448,0.22941187,9.864411,0.00030543236,0.0007635809,-0.0007635809,-58.65,2.5500002,4.425,9.86800444519764,0.0011222301494010886,0.135223220329647,0.22937807348501194,9.864461787340227,11.0554072,76.9271226,374.7000122070313,,57.541,,,405.0,,1,0,0,1,1
1789662430786.0,2.88,0.13519448,0.22941187,9.864411,0.00030543236,0.0007635809,-0.0007635809,-58.65,2.5500002,4.425,9.86800444519764,0.0011222301494010886,0.13523950259480932,0.22936160897393204,9.864477957523189,11.0554072,76.9271226,374.7000122070313,,57.541,,,405.0,,1,0,0,1,1
1789662430796.0,2.89,0.13519448,0.22941187,9.864411,-0.0009162971,0.00030543236,-0.00015271618,-58.65,2.5500002,4.425,9.86800444519764,0.000977860692347009,0.13521694931487357,0.2293888172352692,9.86442835285641,11.0554072,76.9271226,374.7000122070313,,57.541,,,405.0,,1,0,0,1,1
1789662430806.0,2.9,0.13519448,0.22941187,9.864411,-0.0009162971,0.00030543236,-0.00015271618,-58.65,2.5500002,4.425,9.86800444519764,0.000977860692347009,0.13519157809807716,0.22942725797563165,9.864308276420248,11.0554072,76.9271226,374.7000122070313,,57.541,,,405.0,,1,0,0,1,1
1789662430816.0,2.91,0.13519448,0.22941187,9.864411,-0.0009162971,0.00030543236,-0.00015271618,-60.675003,2.1000001,8.700001,9.86800444519764,0.000977860692347009,0.135182207553909,0.2294500602948116,9.864201248904388,11.0554072,76.9271226,374.7000122070313,,57.541,,,405.0,,1,0,0,1,1
1789662430826.0,2.92,0.13519448,0.22941187,9.864411,-0.0009162971,0.00030543236,-0.00015271618,-60.675003,2.1000001,8.700001,9.86800444519764,0.000977860692347009,0.13518685921913912,0.22943913190210893,9.864268890637637,11.0554072,76.9271226,374.7000122070313,,57.541,,,405.0,,1,0,0,1,1
1789662430836.0,2.93,0.13519448,0.22941187,9.864411,-0.0009162971,0.00030543236,-0.00015271618,-60.675003,2.1000001,8.700001,9.86800444519764,0.000977860692347009,0.13519337705931495,0.22938678552033598,9.86465693031491,11.0554072,76.9271226,374.7000122070313,,57.541,,,405.0,,1,0,0,1,1
1789662430846.0,2.94,0.13519448,0.22941187,9.864411,-0.0009162971,0.00030543236,-0.00015271618,-60.675003,2.1000001,8.700001,9.86800444519764,0.000977860692347009,0.13519295670016948,0.22930063347391685,9.865367056162583,11.0554072,76.9271226,374.7000122070313,,57.541,,,405.0,,1,0,0,1,1
1789662430856.0,2.95,0.13519448,0.22911277,9.867104,-0.0009162971,0.00030543236,-0.00015271618,-60.675003,2.1000001,8.700001,9.870689517739656,0.000977860692347009,0.13518745878323757,0.22920533224326456,9.86620648902613,11.0554072,76.9271226,374.7000122070313,,57.541,,,405.0,,1,0,0,1,1
1789662430866.0,2.96,0.13519448,0.22911277,9.867104,-0.0009162971,0.00030543236,-0.00015271618,-60.675003,2.1000001,8.700001,9.870689517739656,0.000977860692347009,0.1351870376561255,0.2291325595637421,9.866887267795706,11.0554072,76.9271226,374.7000122070313,,57.541,,,405.0,,1,0,0,1,1
1789662430876.0,2.97,0.13519448,0.22911277,9.867104,-0.0009162971,0.00030543236,-0.00015271618,-60.675003,2.1000001,8.700001,9.870689517739656,0.000977860692347009,0.13519999652961995,0.2291021892194082,9.867213840155411,11.0554072,76.9271226,374.7000122070313,,57.541,,,405.0,,1,0,0,1,1
1789662430886.0,2.98,0.13519448,0.22911277,9.867104,-0.0009162971,0.00030543236,-0.00015271618,-60.675003,2.1000001,8.700001,9.870689517739656,0.000977860692347009,0.13522138392826244,0.2291087952977341,9.867208555691954,11.0554072,76.9271226,374.7000122070313,,57.541,,,405.0,,1,0,0,1,1
1789662430896.0,2.99,0.13519448,0.22911277,9.867104,-0.0009162971,-0.00045814854,-0.0006108647,-60.675003,2.1000001,8.700001,9.870689517739656,0.0011927515004721777,0.1352299920655177,0.22912490865850693,9.867079159139488,11.0554072,76.9271226,374.7000122070313,,57.541,,,405.0,,1,0,0,1,1
1789662430906.0,3.0,0.13519448,0.22911277,9.867104,-0.0009162971,-0.00045814854,-0.0006108647,-60.675003,2.1000001,8.700001,9.870689517739656,0.0011927515004721777,0.13520169016404482,0.22912026671474953,9.86705958772971,11.0554072,76.9271226,374.7000122070313,,57.541,,,405.0,,1,0,0,1,1
1789662430916.0,3.01,0.13519448,0.22911277,9.867104,-0.0009162971,-0.00045814854,-0.0006108647,-60.600002,2.25,8.175,9.870689517739656,0.0011927515004721777,0.13513675703102657,0.22908632539336843,9.867231479855738,11.0554072,76.9271226,374.7000122070313,,57.541,,,405.0,,1,0,0,1,1
1789662430926.0,3.02,0.13519448,0.22911277,9.867104,-0.0009162971,-0.00045814854,-0.0006108647,-60.600002,2.25,8.175,9.870689517739656,0.0011927515004721777,0.13508278102468588,0.22905108164875207,9.867434288752282,11.0554072,76.9271226,374.7000122070313,,57.541,,,405.0,,1,0,0,1,1
1789662430936.0,3.03,0.13519448,0.22911277,9.867104,-0.0009162971,-0.00045814854,-0.0006108647,-60.600002,2.25,8.175,9.870689517739656,0.0011927515004721777,0.13512603754246427,0.22907050267160725,9.867333215877247,11.0554072,76.9271226,374.7000122070313,,57.541,,,405.0,,1,0,0,1,1
1789662430946.0,3.04,0.13519448,0.22911277,9.867104,-0.0009162971,-0.00045814854,-0.0006108647,-60.600002,2.25,8.175,9.870689517739656,0.0011927515004721777,0.1353400570208989,0.22919392776379124,9.86663765940368,11.0554072,76.9271226,374.7000122070313,,57.541,,,405.0,,1,0,0,1,1
1789662430956.0,3.05,0.13519448,0.22911277,9.867104,-0.0009162971,-0.00045814854,-0.0006108647,-60.600002,2.25,8.175,9.870689517739656,0.0011927515004721777,0.1357205395268533,0.22942267202492886,9.865344255290925,11.0554072,76.9271226,374.7000122070313,,57.541,,,405.0,,1,0,0,1,1
1789662430966.0,3.06,0.13668999,0.23001008,9.862019,-0.0009162971,-0.00045814854,-0.0006108647,-60.600002,2.25,8.175,9.865647852352566,0.0011927515004721777,0.13616580407277667,0.229696619470401,9.863804054011291,11.0554072,76.9271226,374.7000122070313,,57.541,,,405.0,,1,0,0,1,1
1789662430976.0,3.07,0.13668999,0.23001008,9.862019,-0.0009162971,-0.00045814854,-0.0006108647,-60.600002,2.25,8.175,9.865647852352566,0.0011927515004721777,0.13653486638656365,0.22992746524613353,9.862517309755733,11.0554072,76.9271226,374.7000122070313,,57.541,,,405.0,,1,0,0,1,1
1789662430986.0,3.08,0.13668999,0.23001008,9.862019,-0.0009162971,-0.00045814854,-0.0006108647,-60.600002,2.25,8.175,9.865647852352566,0.0011927515004721777,0.13674088399334686,0.23005481754234416,9.861806373737025,11.0554072,76.9271226,374.7000122070313,,57.541,,,405.0,,1,0,0,1,1
1789662430996.0,3.09,0.13668999,0.23001008,9.862019,-0.0009162971,-0.00045814854,-0.0006108647,-60.600002,2.25,8.175,9.865647852352566,0.0011927515004721777,0.13679716162547018,0.23007823047434603,9.861645600458834,11.0554072,76.9271226,374.7000122070313,,57.541,,,405.0,,1,0,0,1,1
1789662431006.0,3.1,0.13668999,0.23001008,9.862019,0.00030543236,-0.00045814854,-0.0,-60.600002,2.25,8.175,9.865647852352566,0.0005506260175829881,0.13677893949583403,0.23004327254987467,9.861771666202063,11.0554072,76.9271226,374.7000122070313,,57.541,,,405.0,,1,0,0,1,1
1789662431016.0,3.11,0.13668999,0.23001008,9.862019,0.00030543236,-0.00045814854,-0.0,-60.825,2.1000001,9.3,9.865647852352566,0.0005506260175829881,0.1367449124221564,0.23000235278556747,9.861935821572626,11.0554072,76.9271226,374.7000122070313,,57.541,,,405.0,,1,0,0,1,1
1789662431026.0,3.12,0.13668999,0.23001008,9.862019,0.00030543236,-0.00045814854,-0.0,-60.825,2.1000001,9.3,9.865647852352566,0.0005506260175829881,0.13669201932254182,0.2299848935658299,9.862068710147222,11.0554072,76.9271226,374.7000122070313,,57.541,,,405.0,,1,0,0,1,1
1789662431036.0,3.13,0.13668999,0.23001008,9.862019,0.00030543236,-0.00045814854,-0.0,-60.825,2.1000001,9.3,9.865647852352566,0.0005506260175829881,0.13657723071908137,0.229992413472591,9.862251591930518,11.0554072,76.9271226,374.7000122070313,,57.541,,,405.0,,1,0,0,1,1
1789662431046.0,3.14,0.13668999,0.23001008,9.862019,0.00030543236,-0.00045814854,-0.0,-60.825,2.1000001,9.3,9.865647852352566,0.0005506260175829881,0.13637734490228196,0.23001073515306045,9.862566179953445,11.0554072,76.9271226,374.7000122070313,,57.541,,,405.0,,1,0,0,1,1
1789662431056.0,3.15,0.13579269,0.23001008,9.863514,0.00030543236,-0.00045814854,-0.0,-60.825,2.1000001,9.3,9.867129912986606,0.0005506260175829881,0.13612660452477826,0.23002419375727082,9.862977947702078,11.0554072,76.9271226,374.7000122070313,,57.541,,,405.0,,1,0,0,1,1
1789662431066.0,3.16,0.13579269,0.23001008,9.863514,0.00030543236,-0.00045814854,-0.0,-60.825,2.1000001,9.3,9.867129912986606,0.0005506260175829881,0.13589772901258565,0.2300236309574644,9.863350566744272,11.0554072,76.9271226,374.7000122070313,,57.541,,,405.0,,1,0,0,1,1
1789662431076.0,3.17,0.13579269,0.23001008,9.863514,0.00030543236,-0.00045814854,-0.0,-60.825,2.1000001,9.3,9.867129912986606,0.0005506260175829881,0.13575003277871878,0.23000900236946278,9.863558510151588,11.0554072,76.9271226,374.7000122070313,,57.541,,,405.0,,1,0,0,1,1
1789662431086.0,3.18,0.13579269,0.23001008,9.863514,0.00030543236,-0.00045814854,-0.0,-60.825,2.1000001,9.3,9.867129912986606,0.0005506260175829881,0.1356974221931734,0.22998986275171565,9.863584727971554,11.0554072,76.9271226,374.7000122070313,,57.541,,,405.0,,1,0,0,1,1
1789662431096.0,3.19,0.13579269,0.23001008,9.863514,0.00030543236,-0.00045814854,0.00045814854,-60.825,2.1000001,9.3,9.867129912986606,0.0007163023774520316,0.13571893764720255,0.2299830832690656,9.863523848994058,11.0554072,76.9271226,374.7000122070313,,57.541,,,405.0,,1,0,0,1,1
1789662431106.0,3.2,0.13579269,0.23001008,9.863514,0.00030543236,-0.00045814854,0.00045814854,-60.825,2.1000001,9.3,9.867129912986606,0.0007163023774520316,0.13578569645325453,0.23000378403789506,9.863500807953658,11.0554072,76.9271226,374.7000122070313,,57.541,,,405.0,,1,0,0,1,1
1789662431116.0,3.21,0.13579269,0.23001008,9.863514,0.00030543236,-0.00045814854,0.00045814854,-60.825,2.1000001,9.3,9.867129912986606,0.0007163023774520316,0.13586786625906525,0.23004924977368602,9.863570440426463,11.0554072,76.9271226,374.7000122070313,,57.541,,,405.0,,1,0,0,1,1
1789662431126.0,3.22,0.13579269,0.23001008,9.863514,0.00030543236,-0.00045814854,0.00045814854,-60.750004,2.325,7.7250004,9.867129912986606,0.0007163023774520316,0.13591871712374815,0.23008596051423716,9.863663997244455,11.0554072,76.9271226,374.7000122070313,,57.541,,,405.0,,1,0,0,1,1
1789662431136.0,3.23,0.13579269,0.23001008,9.863514,0.00030543236,-0.00045814854,0.00045814854,-60.750004,2.325,7.7250004,9.867129912986606,0.0007163023774520316,0.1358678762643796,0.2300568272815474,9.863620360679692,11.0554072,76.9271226,374.7000122070313,,57.541,,,405.0,,1,0,0,1,1
1789662431146.0,3.24,0.13579269,0.23001008,9.863514,0.00030543236,-0.00045814854,0.00045814854,-60.750004,2.325,7.7250004,9.867129912986606,0.0007163023774520316,0.1356528345845526,0.22991625243571948,9.863295252768141,11.0554072,76.9271226,374.7000122070313,,57.541,,,405.0,,1,0,0,1,1
1789662431156.0,3.25,0.13579269,0.23001008,9.863514,0.00030543236,-0.00045814854,0.00045814854,-60.750004,2.325,7.7250004,9.867129912986606,0.0007163023774520316,0.13527447671735723,0.22967364203198284,9.862683144944139,11.0554072,76.9271226,374.7000122070313,,57.541,,,405.0,,1,0,0,1,1
1789662431166.0,3.26,0.13429718,0.22911277,9.861121,0.00030543236,-0.00045814854,0.00045814854,-60.750004,2.325,7.7250004,9.864696435804502,0.0007163023774520316,0.13482231772454328,0.22940471981486482,9.861952703355515,11.0554072,76.9271226,374.7000122070313,,57.541,,,405.0,,1,0,0,1,1
1789662431176.0,3.27,0.13429718,0.22911277,9.861121,0.00030543236,-0.00045814854,0.00045814854,-60.750004,2.325,7.7250004,9.864696435804502,0.0007163023774520316,0.13443198431923287,0.22920681892735026,9.861347954028622,11.0554072,76.9271226,374.7000122070313,,57.541,,,405.0,,1,0,0,1,1
1789662431186.0,3.28,0.13429718,0.22911277,9.861121,0.00030543236,-0.00045814854,0.00045814854,-60.750004,2.325,7.7250004,9.864696435804502,0.0007163023774520316,0.13420465091479306,0.22912619967253203,9.861026541842405,11.0554072,76.9271226,374.7000122070313,,57.541,,,405.0,,1,0,0,1,1
1789662431196.0,3.29,0.13429718,0.22911277,9.861121,0.00030543236,-0.00045814854,0.00045814854,-60.750004,2.325,7.7250004,9.864696435804502,0.0007163023774520316,0.1341572824266539,0.2291206576334198,9.860970742954958,11.0554072,76.9271226,374.7000122070313,,57.541,,,405.0,,1,0,0,1,1
1789662431206.0,3.3,0.13429718,0.22911277,9.861121,0.00030543236,0.0007635809,0.00045814854,-60.750004,2.325,7.7250004,9.864696435804502,0.0009414057584719307,0.13423470377459037,0.22909747608274586,9.86103717583682,11.0554072,76.9271226,374.7000122070313,,57.541,,,405.0,,1,0,0,1,1
1789662431216.0,3.31,0.13429718,0.22911277,9.861121,0.00030543236,0.0007635809,0.00045814854,-61.050003,2.1750002,8.925,9.864696435804502,0.0009414057584719307,0.13435206702050795,0.22900521443472108,9.86108689560588,11.0554072,76.9271226,374.7000122070313,,57.541,,,405.0,,1,0,0,1,1
1789662431226.0,3.32,0.13429718,0.22911277,9.861121,0.00030543236,0.0007635809,0.00045814854,-61.050003,2.1750002,8.925,9.864696435804502,0.0009414057584719307,0.13442504960960555,0.22890991456995446,9.861085542265169,11.0554072,76.9271226,374.7000122070313,,57.541,,,405.0,,1,0,0,1,1
1789662431236.0,3.33,0.13429718,0.22911277,9.861121,0.00030543236,0.0007635809,0.00045814854,-61.050003,2.1750002,8.925,9.864696435804502,0.0009414057584719307,0.1343831405557941,0.2289848624232659,9.861106721012664,11.0554072,76.9271226,374.7000122070313,,57.541,,,405.0,,1,0,0,1,1
1789662431246.0,3.34,0.13429718,0.22911277,9.861121,0.00030543236,0.0007635809,0.00045814854,-61.050003,2.1750002,8.925,9.864696435804502,0.0009414057584719307,0.13418845516445807,0.22939597360041883,9.861249782792529,11.0554072,76.9271226,374.7000122070313,,57.541,,,405.0,,1,0,0,1,1
1789662431256.0,3.35,0.13429718,0.22911277,9.861121,0.00030543236,0.0007635809,0.00045814854,-61.050003,2.1750002,8.925,9.864696435804502,0.0009414057584719307,0.13386395941667678,0.230153900315605,9.861541105527026,11.0554072,76.9271226,374.7000122070313,,57.541,,,405.0,,1,0,0,1,1
1789662431266.0,3.36,0.13310076,0.2321038,9.862318,0.00030543236,0.0007635809,0.00045814854,-61.050003,2.1750002,8.925,9.865946701630362,0.0009414057584719307,0.1334997046689905,0.23106084110822891,9.861898370336654,11.0554072,76.9271226,374.7000122070313,,57.541,,,405.0,,1,0,0,1,1
1789662431276.0,3.37,0.13310076,0.2321038,9.862318,0.00030543236,0.0007635809,0.00045814854,-61.050003,2.1750002,8.925,9.865946701630362,0.0009414057584719307,0.13320950474505105,0.23182122619026066,9.862188594182335,11.0554072,76.9271226,374.7000122070313,,57.541,,,405.0,,1,0,0,1,1
1789662431286.0,3.38,0.13310076,0.2321038,9.862318,0.00030543236,0.0007635809,0.00045814854,-61.050003,2.1750002,8.925,9.865946701630362,0.0009414057584719307,0.13306091193061237,0.2322351879685619,9.862330638470375,11.0554072,76.9271226,374.7000122070313,,57.541,,,405.0,,1,0,0,1,1
1789662431296.0,3.39,0.13310076,0.2321038,9.862318,0.00030543236,0.0007635809,0.00045814854,-61.050003,2.1750002,8.925,9.865946701630362,0.0009414057584719307,0.13303735366806485,0.232310290101697,9.862352415846466,11.0554072,76.9271226,374.7000122070313,,57.541,,,405.0,,1,0,0,1,1
1789662431306.0,3.4,0.13310076,0.2321038,9.862318,0.00030543236,0.0007635809,0.00045814854,-61.050003,2.1750002,8.925,9.865946701630362,0.0009414057584719307,0.13306463612088196,0.2322105169942138,9.862353783346117,11.0554072,76.9271226,374.7000122070313,,57.541,,,405.0,,1,0,0,1,1
1789662431316.0,3.41,0.13310076,0.2321038,9.862318,0.00030543236,0.0007635809,0.00045814854,-60.600002,2.025,8.700001,9.865946701630362,0.0009414057584719307,0.13307624207969587,0.2321109674057388,9.862406665451738,11.0554072,76.9271226,374.7000122070313,,57.541,,,405.0,,1,0,0,1,1
1789662431326.0,3.42,0.13310076,0.2321038,9.862318,0.00030543236,0.0007635809,0.00045814854,-60.600002,2.025,8.700001,9.865946701630362,0.0009414057584719307,0.13306413343649703,0.2320840648404572,9.862473142022052,11.0554072,76.9271226,374.7000122070313,,57.541,,,405.0,,1,0,0,1,1
1789662431336.0,3.43,0.13310076,0.2321038,9.862318,0.00030543236,0.0007635809,0.00045814854,-60.600002,2.025,8.700001,9.865946701630362,0.0009414057584719307,0.13307944242261902,0.23208586469958764,9.862411434831394,11.0554072,76.9271226,374.7000122070313,,57.541,,,405.0,,1,0,0,1,1
1789662431346.0,3.44,0.13310076,0.2321038,9.862318,0.00030543236,0.0007635809,0.00045814854,-60.600002,2.025,8.700001,9.865946701630362,0.0009414057584719307,0.13318564320988577,0.2320245651983308,9.862079988927546,11.0554072,76.9271226,374.7000122070313,,57.541,,,405.0,,1,0,0,1,1
1789662431356.0,3.45,0.13310076,0.2321038,9.862318,0.00030543236,0.0007635809,0.00045814854,-60.600002,2.025,8.700001,9.865946701630362,0.0009414057584719307,0.13340038473962387,0.2318454994083029,9.8614694491614,11.0554072,76.9271226,374.7000122070313,,57.541,,,405.0,,1,0,0,1,1
1789662431366.0,3.46,0.13399807,0.23120649,9.859925,0.00030543236,0.0007635809,0.00045814854,-60.600002,2.025,8.700001,9.863545657085329,0.0009414057584719307,0.1336723470923754,0.23157203062623977,9.860748185303882,11.0554072,76.9271226,374.7000122070313,,57.541,,,405.0,,1,0,0,1,1
1789662431376.0,3.47,0.13399807,0.23120649,9.859925,0.00030543236,0.0007635809,0.00045814854,-60.600002,2.025,8.700001,9.863545657085329,0.0009414057584719307,0.13391281862417143,0.23128613552243876,9.860162592864977,11.0554072,76.9271226,374.7000122070313,,57.541,,,405.0,,1,0,0,1,1
1789662431386.0,3.48,0.13399807,0.23120649,9.859925,0.00030543236,0.0007635809,0.00045814854,-60.600002,2.025,8.700001,9.863545657085329,0.0009414057584719307,0.13405388783202032,0.23108087474047992,9.859864994787928,11.0554072,76.9271226,374.7000122070313,,57.541,,,405.0,,1,0,0,1,1
1789662431396.0,3.49,0.13399807,0.23120649,9.859925,0.00030543236,0.0007635809,0.00045814854,-60.600002,2.025,8.700001,9.863545657085329,0.0009414057584719307,0.13408371338459033,0.23102448115982596,9.859817461153014,11.0554072,76.9271226,374.7000122070313,,57.541,,,405.0,,1,0,0,1,1
1789662431406.0,3.5,0.13399807,0.23120649,9.859925,0.00030543236,-0.00045814854,0.00045814854,-60.600002,2.025,8.700001,9.863545657085329,0.0007163023774520316,0.13403812837373513,0.23113872510633302,9.85985156818088,11.0554072,76.9271226,374.7000122070313,,57.541,,,405.0,,1,0,0,1,1
1789662431416.0,3.51,0.13399807,0.23120649,9.859925,0.00030543236,-0.00045814854,0.00045814854,-60.45,2.1750002,8.325001,9.863545657085329,0.0007163023774520316,0.13397028466048747,0.2313685466524267,9.85982736334013,11.0554072,76.9271226,374.7000122070313,,57.541,,,405.0,,1,0,0,1,1
1789662431426.0,3.52,0.13399807,0.23120649,9.859925,0.00030543236,-0.00045814854,0.00045814854,-60.45,2.1750002,8.325001,9.863545657085329,0.0007163023774520316,0.1339285805282297,0.23155035043697086,9.859761641500254,11.0554072,76.9271226,374.7000122070313,,57.541,,,405.0,,1,0,0,1,1
1789662431436.0,3.53,0.13399807,0.23120649,9.859925,0.00030543236,-0.00045814854,0.00045814854,-60.45,2.1750002,8.325001,9.863545657085329,0.0007163023774520316,0.13394909222906334,0.2314370328410613,9.859826301459425,11.0554072,76.9271226,374.7000122070313,,57.541,,,405.0,,1,0,0,1,1
1789662431446.0,3.54,0.13399807,0.23120649,9.859925,0.00030543236,-0.00045814854,0.00045814854,-60.45,2.1750002,8.325001,9.863545657085329,0.0007163023774520316,0.13404913747530522,0.2308254728760682,9.860211422960322,11.0554072,76.9271226,374.7000122070313,,57.541,,,405.0,,1,0,0,1,1
1789662431456.0,3.55,0.13399807,0.23120649,9.859925,0.00030543236,-0.00045814854,0.00045814854,-60.45,2.1750002,8.325001,9.863545657085329,0.0007163023774520316,0.13421577181681094,0.2297290348944186,9.860951254984759,11.0554072,76.9271226,374.7000122070313,,57.541,,,405.0,,1,0,0,1,1
1789662431466.0,3.56,0.13459627,0.22701904,9.862916,0.00030543236,-0.00045814854,0.00045814854,-60.45,2.1750002,8.325001,9.866446463822546,0.0007163023774520316,0.1344026552923973,0.22843991730440366,9.861857800181255,11.0554072,76.9271226,374.7000122070313,,57.541,,,405.0,,1,0,0,1,1
1789662431476.0,3.57,0.13459627,0.22701904,9.862916,0.00030543236,-0.00045814854,0.00045814854,-60.45,2.1750002,8.325001,9.866446463822546,0.0007163023774520316,0.13455023160383567,0.22737965259844717,9.86263154641041,11.0554072,76.9271226,374.7000122070313,,57.541,,,405.0,,1,0,0,1,1
1789662431486.0,3.58,0.13459627,0.22701904,9.862916,0.00030543236,-0.00045814854,0.00045814854,-60.45,2.1750002,8.325001,9.866446463822546,0.0007163023774520316,0.1346208554649807,0.22683212803760763,9.863060788578382,11.0554072,76.9271226,374.7000122070313,,57.541,,,405.0,,1,0,0,1,1
1789662431496.0,3.59,0.13459627,0.22701904,9.862916,0.00030543236,-0.00045814854,0.00045814854,-60.45,2.1750002,8.325001,9.866446463822546,0.0007163023774520316,0.1346212693594896,0.2267782448145914,9.86313981388636,11.0554072,76.9271226,374.7000122070313,,57.541,,,405.0,,1,0,0,1,1
1789662431506.0,3.6,0.13459627,0.22701904,9.862916,0.00030543236,-0.00045814854,0.00045814854,-60.45,2.1750002,8.325001,9.866446463822546,0.0007163023774520316,0.13459430220915258,0.22695496188798853,9.863024866867125,11.0554072,76.9271226,374.7000122070313,,57.541,,,405.0,,1,0,0,1,1
1789662431516.0,3.61,0.13459627,0.22701904,9.862916,0.00030543236,-0.00045814854,0.00045814854,-60.45,2.1750002,8.325001,9.866446463822546,0.0007163023774520316,0.13458691258190533,0.22706635122309804,9.862896798817903,11.0554072,76.9271226,374.7000122070313,,57.541,,,405.0,,1,0,0,1,1
1789662431526.0,3.62,0.13459627,0.22701904,9.862916,0.00030543236,-0.00045814854,0.00045814854,-60.45,2.325,8.925,9.866446463822546,0.0007163023774520316,0.13461621680901187,0.22698452640346622,9.862851836212599,11.0554072,76.9271226,374.7000122070313,,57.541,,,405.0,,1,0,0,1,1
1789662431536.0,3.63,0.13459627,0.22701904,9.862916,0.00030543236,-0.00045814854,0.00045814854,-60.45,2.325,8.925,9.866446463822546,0.0007163023774520316,0.13465354739966298,0.22682405642861847,9.862881111351534,11.0554072,76.9271226,374.7000122070313,,57.541,,,405.0,,1,0,0,1,1
1789662431546.0,3.64,0.13459627,0.22701904,9.862916,0.00030543236,-0.00045814854,0.00045814854,-60.45,2.325,8.925,9.866446463822546,0.0007163023774520316,0.13463785133289324,0.22685949113442924,9.862919069390854,11.0554072,76.9271226,374.7000122070313,,57.541,,,405.0,,1,0,0,1,1
1789662431556.0,3.65,0.13459627,0.22701904,9.862916,0.00030543236,-0.00045814854,0.00045814854,-60.45,2.325,8.925,9.866446463822546,0.0007163023774520316,0.1345158438844786,0.22733062979783328,9.862907525421885,11.0554072,76.9271226,374.7000122070313,,57.541,,,405.0,,1,0,0,1,1
1789662431566.0,3.66,0.13459627,0.22701904,9.862916,0.00030543236,-0.00045814854,0.00045814854,-60.45,2.325,8.925,9.866446463822546,0.0007163023774520316,0.13428607283007832,0.22824983758024625,9.862833960355484,11.0554072,76.9271226,374.7000122070313,,57.541,,,405.0,,1,0,0,1,1
1789662431576.0,3.67,0.13369897,0.23060828,9.862617,0.00030543236,-0.00045814854,0.00045814854,-60.45,2.325,8.925,9.86621861110287,0.0007163023774520316,0.13401141343031775,0.2293558181138838,9.86273029518208,11.0554072,76.9271226,374.7000122070313,,57.541,,,405.0,,1,0,0,1,1
1789662431586.0,3.68,0.13369897,0.23060828,9.862617,0.00030543236,-0.00045814854,0.00045814854,-60.45,2.325,8.925,9.86621861110287,0.0007163023774520316,0.13378271402425698,0.23027276942069355,9.862643003337075,11.0554072,76.9271226,374.7000122070313,,57.541,,,405.0,,1,0,0,1,1
1789662431596.0,3.69,0.13369897,0.23060828,9.862617,0.00030543236,-0.00045814854,0.00045814854,-60.45,2.325,8.925,9.86621861110287,0.0007163023774520316,0.13365964746379982,0.2307589035526712,9.862599784765601,11.0554072,76.9271226,374.7000122070313,,57.541,,,405.0,,1,0,0,1,1
1789662431606.0,3.7,0.13369897,0.23060828,9.862617,0.00030543236,-0.00045814854,0.00045814854,-60.45,2.325,8.925,9.86621861110287,0.0007163023774520316,0.13363803330280224,0.23083996300354712,9.862596029839711,11.0554072,76.9271226,374.7000122070313,,57.541,,,405.0,,1,0,0,1,1
1789662431616.0,3.71,0.13369897,0.23060828,9.862617,0.00030543236,-0.00045814854,0.00045814854,-61.2,1.6500001,9.0,9.86621861110287,0.0007163023774520316,0.13366696907578493,0.23073279333352273,9.862606652940988,11.0554072,76.9271226,374.7000122070313,,57.541,,,405.0,,1,0,0,1,1
1789662431626.0,3.72,0.13369897,0.23060828,9.862617,0.00030543236,-0.00045814854,0.00045814854,-61.2,1.6500001,9.0,9.86621861110287,0.0007163023774520316,0.1336941239213624,0.23064969053707415,9.862609968687964,11.0554072,76.9271226,374.7000122070313,,57.541,,,405.0,,1,0,0,1,1
1789662431636.0,3.73,0.13369897,0.23060828,9.862617,0.00030543236,-0.00045814854,0.00045814854,-61.2,1.6500001,9.0,9.86621861110287,0.0007163023774520316,0.13370038648284538,0.23064839840003157,9.86260471422127,11.0554072,76.9271226,374.7000122070313,,57.541,,,405.0,,1,0,0,1,1
1789662431646.0,3.74,0.13369897,0.23060828,9.862617,0.00030543236,-0.00045814854,0.00045814854,-61.2,1.6500001,9.0,9.86621861110287,0.0007163023774520316,0.13370253210929475,0.23062476471717053,9.862609324630995,11.0554072,76.9271226,374.7000122070313,,57.541,,,405.0,,1,0,0,1,1
1789662431656.0,3.75,0.13369897,0.23060828,9.862617,0.00030543236,-0.00045814854,0.00045814854,-61.2,1.6500001,9.0,9.86621861110287,0.0007163023774520316,0.13372957595722318,0.23042982791708214,9.862645425112945,11.0554072,76.9271226,374.7000122070313,,57.541,,,405.0,,1,0,0,1,1
1789662431666.0,3.76,0.13369897,0.23060828,9.862617,0.00030543236,-0.00045814854,0.00045814854,-61.2,1.6500001,9.0,9.86621861110287,0.0007163023774520316,0.13379460021396355,0.23001173379337955,9.862718155788317,11.0554072,76.9271226,374.7000122070313,,57.541,,,405.0,,1,0,0,1,1
1789662431676.0,3.77,0.13399807,0.22881366,9.862916,0.00030543236,-0.00045814854,0.00045814854,-61.2,1.6500001,9.0,9.866479777348268,0.0007163023774520316,0.13388333630010607,0.22947184277767763,9.862808944206815,11.0554072,76.9271226,374.7000122070313,,57.541,,,405.0,,1,0,0,1,1
1789662431686.0,3.78,0.13399807,0.22881366,9.862916,0.00030543236,-0.00045814854,0.00045814854,-61.2,1.6500001,9.0,9.866479777348268,0.0007163023774520316,0.1339657125548963,0.2289946310256235,9.862887195756464,11.0554072,76.9271226,374.7000122070313,,57.541,,,405.0,,1,0,0,1,1
1789662431696.0,3.79,0.13399807,0.22881366,9.862916,0.00030543236,-0.00045814854,0.00045814854,-61.2,1.6500001,9.0,9.866479777348268,0.0007163023774520316,0.13401743421581708,0.22871826531714823,9.862931013092712,11.0554072,76.9271226,374.7000122070313,,57.541,,,405.0,,1,0,0,1,1
1789662431706.0,3.8,0.13399807,0.22881366,9.862916,0.00030543236,-0.00045814854,0.00045814854,-61.2,1.6500001,9.0,9.866479777348268,0.0007163023774520316,0.13403242769217494,0.22865780221109436,9.862939358754934,11.0554072,76.9271226,374.7000122070313,,57.541,,,405.0,,1,0,0,1,1
1789662431716.0,3.81,0.13399807,0.22881366,9.862916,-0.0009162971,-0.00030543236,0.00045814854,-61.2,1.6500001,9.0,9.866479777348268,0.001069013277142857,0.1340195315463537,0.22872948107927876,9.86292762030729,11.0554072,76.9271226,374.7000122070313,,57.541,,,405.0,,1,0,0,1,1
1789662431726.0,3.82,0.13399807,0.22881366,9.862916,-0.0009162971,-0.00030543236,0.00045814854,-61.275,1.575,8.025001,9.866479777348268,0.001069013277142857,0.133992948525615,0.22882896514778558,9.862913863639989,11.0554072,76.9271226,374.7000122070313,,57.541,,,405.0,,1,0,0,1,1
1789662431736.0,3.83,0.13399807,0.22881366,9.862916,-0.0009162971,-0.00030543236,0.00045814854,-61.275,1.575,8.025001,9.866479777348268,0.001069013277142857,0.13396787928028714,0.22888891100159448,9.86290811862971,11.0554072,76.9271226,374.7000122070313,,57.541,,,405.0,,1,0,0,1,1
1789662431746.0,3.84,0.13399807,0.22881366,9.862916,-0.0009162971,-0.00030543236,0.00045814854,-61.275,1.575,8.025001,9.866479777348268,0.001069013277142857,0.133961213921771,0.22888724741362723,9.862910515934216,11.0554072,76.9271226,374.7000122070313,,57.541,,,405.0,,1,0,0,1,1
1789662431756.0,3.85,0.13399807,0.22881366,9.862916,-0.0009162971,-0.00030543236,0.00045814854,-61.275,1.575,8.025001,9.866479777348268,0.001069013277142857,0.13398735758639518,0.22883031480540367,9.862915825611314,11.0554072,76.9271226,374.7000122070313,,57.541,,,405.0,,1,0,0,1,1
1789662431766.0,3.86,0.13399807,0.22881366,9.862916,-0.00045814854,-0.00045814854,0.00045814854,-61.275,1.575,8.025001,9.866479777348268,0.000793536548693502,0.13404306145293962,0.22874523596323348,9.862918980813951,11.0554072,76.9271226,374.7000122070313,,57.541,,,405.0,,1,0,0,1,1
1789662431776.0,3.87,0.13399807,0.22881366,9.862916,-0.00045814854,-0.00045814854,0.00045814854,-61.275,1.575,8.025001,9.866479777348268,0.000793536548693502,0.1340906507130721,0.22868709313201774,9.862918123690145,11.0554072,76.9271226,374.7000122070313,,57.541,,,405.0,,1,0,0,1,1
1789662431786.0,3.88,0.13399807,0.22881366,9.862916,-0.00045814854,-0.00045814854,0.00045814854,-61.275,1.575,8.025001,9.866479777348268,0.000793536548693502,0.134061506577352,0.22873518548542576,9.862914796361782,11.0554072,76.9271226,374.7000122070313,,57.541,,,405.0,,1,0,0,1,1
1789662431796.0,3.89,0.13399807,0.22881366,9.862916,-0.00045814854,-0.00045814854,0.00045814854,-61.275,1.575,8.025001,9.866479777348268,0.000793536548693502,0.13389331937249405,0.22895459646293556,9.86291240941629,11.0554072,76.9271226,374.7000122070313,,57.541,,,405.0,,1,0,0,1,1
1789662431806.0,3.9,0.13399807,0.22881366,9.862916,-0.00045814854,-0.00045814854,0.00045814854,-61.275,1.575,8.025001,9.866479777348268,0.000793536548693502,0.13358292766966462,0.22933932795477582,9.862913963102775,11.0554072,76.9271226,374.7000122070313,,57.541,,,405.0,,1,0,0,1,1
1789662431816.0,3.91,0.13280165,0.23030917,9.862916,-0.00045814854,-0.00045814854,0.00045814854,-61.275,1.575,8.025001,9.866498396852087,0.000793536548693502,0.13320893448459198,0.22979106495532078,9.862919640482433,11.0554072,76.9271226,374.7000122070313,,57.541,,,405.0,,1,0,0,1,1
1789662431826.0,3.92,0.13280165,0.23030917,9.862916,-0.00045814854,-0.00045814854,0.00045814854,-61.050003,2.1750002,9.075001,9.866498396852087,0.000793536548693502,0.13289363490017778,0.23016929749378182,9.86292538396486,11.0554072,76.9271226,374.7000122070313,,57.541,,,405.0,,1,0,0,1,1
1789662431836.0,3.93,0.13280165,0.23030917,9.862916,-0.00045814854,-0.00045814854,0.00045814854,-61.050003,2.1750002,9.075001,9.866498396852087,0.000793536548693502,0.1327283943394883,0.23037912208570507,9.86292431330805,11.0554072,76.9271226,374.7000122070313,,57.541,,,405.0,,1,0,0,1,1
1789662431846.0,3.94,0.13280165,0.23030917,9.862916,-0.00045814854,-0.00045814854,0.00045814854,-61.050003,2.1750002,9.075001,9.866498396852087,0.000793536548693502,0.132721355638638,0.2304214663991795,9.86291206269994,11.0554072,76.9271226,374.7000122070313,,57.541,,,405.0,,1,0,0,1,1
1789662431856.0,3.95,0.13280165,0.23030917,9.862916,-0.00045814854,-0.00045814854,0.00045814854,-61.050003,2.1750002,9.075001,9.866498396852087,0.000793536548693502,0.13280188139552582,0.23036933911797425,9.862893765255173,11.0554072,76.9271226,374.7000122070313,,57.541,,,405.0,,1,0,0,1,1
1789662431866.0,3.96,0.13280165,0.23030917,9.862916,-0.00045814854,-0.00045814854,0.00045814854,-61.050003,2.1750002,9.075001,9.866498396852087,0.000793536548693502,0.13286813800991693,0.23030411785630325,9.862886227340157,11.0554072,76.9271226,374.7000122070313,,57.541,,,405.0,,1,0,0,1,1
1789662431876.0,3.97,0.13280165,0.23030917,9.862916,-0.0007635809,-0.00045814854,0.00045814854,-61.050003,2.1750002,9.075001,9.866498396852087,0.0010014269620162387,0.13284566015378166,0.23026952708928472,9.862908378055499,11.0554072,76.9271226,374.7000122070313,,57.541,,,405.0,,1,0,0,1,1
1789662431886.0,3.98,0.13280165,0.23030917,9.862916,-0.0007635809,-0.00045814854,0.00045814854,-61.050003,2.1750002,9.075001,9.866498396852087,0.0010014269620162387,0.13273447734245733,0.23026864575647998,9.8629604184518,11.0554072,76.9271226,374.7000122070313,,57.541,,,405.0,,1,0,0,1,1
1789662431896.0,3.99,0.13280165,0.23030917,9.862916,-0.0007635809,-0.00045814854,0.00045814854,-61.050003,2.1750002,9.075001,9.866498396852087,0.0010014269620162387,0.1326275818172141,0.23028801824388004,9.863005276074112,11.0554072,76.9271226,374.7000122070313,,57.541,,,405.0,,1,0,0,1,1
1789662431906.0,4.0,0.13280165,0.23030917,9.862916,-0.0007635809,-0.00045814854,0.00045814854,-61.050003,2.1750002,9.075001,9.866498396852087,0.0010014269620162387,0.13267900428126864,0.23031901496443613,9.862974031501892,11.0554072,76.9271226,374.7000122070313,,57.541,,,405.0,,1,0,0,1,1
1789662431916.0,4.01,0.13280165,0.23030917,9.862916,-0.0007635809,-0.00045814854,0.00045814854,-61.050003,2.1750002,9.075001,9.866498396852087,0.0010014269620162387,0.1330147948713352,0.23036083530404874,9.862805651429916,11.0554072,76.9271226,374.7000122070313,,57.541,,,405.0,,1,0,0,1,1
1789662431926.0,4.02,0.13280165,0.23030917,9.862916,-0.0007635809,-0.00045814854,0.00045814854,-61.050003,2.1750002,9.075001,9.866498396852087,0.0010014269620162387,0.13363064151148696,0.23041224603090696,9.86249959857666,11.0554072,76.9271226,374.7000122070313,,57.541,,,405.0,,1,0,0,1,1
1789662431936.0,4.03,0.13519448,0.23060828,9.861719,-0.0007635809,-0.00045814854,0.00045814854,-61.050003,2.1750002,9.075001,9.865341320055178,0.0010014269620162387,0.13436202733450553,0.23046894719996602,9.862134868631939,11.0554072,76.9271226,374.7000122070313,,57.541,,,405.0,,1,0,0,1,1
1789662431946.0,4.04,0.13519448,0.23060828,9.861719,-0.0007635809,-0.00045814854,0.00045814854,-61.050003,2.1750002,9.075001,9.865341320055178,0.0010014269620162387,0.13497433818774898,0.23053148402079904,9.861828030517687,11.0554072,76.9271226,374.7000122070313,,57.541,,,405.0,,1,0,0,1,1
1789662431956.0,4.05,0.13519448,0.23060828,9.861719,-0.0007635809,-0.00045814854,0.00045814854,-61.050003,2.1750002,9.075001,9.865341320055178,0.0010014269620162387,0.13531060114267732,0.23060832386465938,9.861659579507023,11.0554072,76.9271226,374.7000122070313,,57.541,,,405.0,,1,0,0,1,1
1789662431966.0,4.06,0.13519448,0.23060828,9.861719,-0.0007635809,-0.00045814854,0.00045814854,-61.050003,2.1750002,9.075001,9.865341320055178,0.0010014269620162387,0.13537366748197902,0.23069730498457872,9.86163046901412,11.0554072,76.9271226,374.7000122070313,,57.541,,,405.0,,1,0,0,1,1
1789662431976.0,4.07,0.13519448,0.23060828,9.861719,0.00030543236,0.0,-0.0007635809,-60.15,2.25,8.55,9.865341320055178,0.0008224017980160182,0.13528591975501242,0.23075554205793947,9.861679114636953,11.0554072,76.9271226,374.7000122070313,,57.541,,,405.0,,1,0,0,1,1
1789662431986.0,4.08,0.13519448,0.23060828,9.861719,0.00030543236,0.0,-0.0007635809,-60.15,2.25,8.55,9.865341320055178,0.0008224017980160182,0.13518312071834274,0.23069562340680466,9.86173317151089,11.0554072,76.9271226,374.7000122070313,,57.541,,,405.0,,1,0,0,1,1
1789662431996.0,4.09,0.13519448,0.23060828,9.861719,0.00030543236,0.0,-0.0007635809,-60.15,2.25,8.55,9.865341320055178,0.0008224017980160182,0.1351363515948278,0.2304354313232668,9.86175121481966,11.0554072,76.9271226,374.7000122070313,,57.541,,,405.0,,1,0,0,1,1
1789662432006.0,4.1,0.13519448,0.23060828,9.861719,0.00030543236,0.0,-0.0007635809,-60.15,2.25,8.55,9.865341320055178,0.0008224017980160182,0.13514447658242015,0.22997554271464565,9.861732742754366,11.05529994,76.92709541,378.1945190429688,0.0,8.718875,,0.0,405.0,,1,1,1,0,1
1789662432016.0,4.11,0.13519448,0.22881366,9.861719,0.00030543236,0.0,-0.0007635809,-60.15,2.25,8.55,9.865299532877147,0.0008224017980160182,0.13517411292565198,0.2294320609460971,9.861703700573822,11.05529994,76.92709541,378.1945190429688,0.0,8.718875,,0.0,405.0,,1,1,1,0,1
1789662432026.0,4.12,0.13519448,0.22881366,9.861719,0.00030543236,0.0,-0.0007635809,-60.375004,2.4,7.5750003,9.865299532877147,0.0008224017980160182,0.13520028532899647,0.2289777512567568,9.861694016008782,11.05529994,76.92709541,378.1945190429688,0.0,8.718875,,0.0,405.0,,1,1,1,0,1
1789662432036.0,4.13,0.13519448,0.22881366,9.861719,0.00030543236,0.0,-0.0007635809,-60.375004,2.4,7.5750003,9.865299532877147,0.0008224017980160182,0.13521863803143863,0.22873184596641613,9.861717711335505,11.05529994,76.92709541,378.1945190429688,0.0,8.718875,,0.0,405.0,,1,1,1,0,1
1789662432046.0,4.14,0.13519448,0.22881366,9.861719,0.00030543236,0.0,-0.0007635809,-60.375004,2.4,7.5750003,9.865299532877147,0.0008224017980160182,0.13523147129101812,0.22869253217912588,9.86176056906881,11.05529994,76.92709541,378.1945190429688,0.0,8.718875,,0.0,405.0,,1,1,1,0,1
1789662432056.0,4.15,0.13519448,0.22881366,9.861719,0.00030543236,0.0,-0.0007635809,-60.375004,2.4,7.5750003,9.865299532877147,0.0008224017980160182,0.13523040056667726,0.22876189403986344,9.861781988671341,11.05529994,76.92709541,378.1945190429688,0.0,8.718875,,0.0,405.0,,1,1,1,0,1
1789662432066.0,4.16,0.13519448,0.22881366,9.861719,0.00030543236,-0.00030543236,0.00045814854,-60.375004,2.4,7.5750003,9.865299532877147,0.0006296649408808392,0.13519812346277268,0.22882798617746541,9.86173918488115,11.05529994,76.92709541,378.1945190429688,0.0,8.718875,,0.0,405.0,,1,1,1,0,1
1789662432076.0,4.17,0.13519448,0.22881366,9.861719,0.00030543236,-0.00030543236,0.00045814854,-60.375004,2.4,7.5750003,9.865299532877147,0.0006296649408808392,0.13513345760732093,0.22883488972956711,9.861631023082223,11.05529994,76.92709541,378.1945190429688,0.0,8.718875,,0.0,405.0,,1,1,1,0,1
1789662432086.0,4.18,0.13519448,0.22881366,9.861719,0.00030543236,-0.00030543236,0.00045814854,-60.375004,2.4,7.5750003,9.865299532877147,0.0006296649408808392,0.13507927209495868,0.22880109441945698,9.861535009025792,11.05529994,76.92709541,378.1945190429688,0.0,8.718875,,0.0,405.0,,1,1,1,0,1
1789662432096.0,4.19,0.13519448,0.22881366,9.861719,0.00030543236,-0.00030543236,0.00045814854,-60.375004,2.4,7.5750003,9.865299532877147,0.0006296649408808392,0.13512026976349326,0.22878968093994445,9.861594792771804,11.05529994,76.92709541,378.1945190429688,0.0,8.718875,,0.0,405.0,,1,1,1,0,1
1789662432106.0,4.2,0.13519448,0.22881366,9.861719,0.00030543236,-0.00030543236,0.00045814854,-60.375004,2.4,7.5750003,9.865299532877147,0.0006296649408808392,0.13533391317546145,0.22885689923483546,9.861937283648798,11.05529994,76.92709541,378.1945190429688,0.0,8.718875,,0.0,405.0,,1,1,1,0,1
1789662432116.0,4.21,0.13519448,0.22881366,9.861719,0.00030543236,-0.00030543236,0.00045814854,-60.375004,2.4,7.5750003,9.865299532877147,0.0006296649408808392,0.13572152870960744,0.22901048229077606,9.862562638196483,11.05529994,76.92709541,378.1945190429688,0.0,8.718875,,0.0,405.0,,1,1,1,0,1
1789662432126.0,4.22,0.13668999,0.22941187,9.864112,0.00030543236,-0.00030543236,0.00045814854,-60.375004,2.4,7.5750003,9.867726156922227,0.0006296649408808392,0.13618114659656563,0.2292026370662413,9.86330307496592,11.05529994,76.92709541,378.1945190429688,0.0,8.718875,,0.0,405.0,,1,1,1,0,1
1789662432136.0,4.23,0.13668999,0.22941187,9.864112,0.00030543236,-0.00030543236,0.00045814854,-60.375004,2.4,7.5750003,9.867726156922227,0.0006296649408808392,0.13656057737026606,0.22936228392252164,9.863910418626089,11.05529994,76.92709541,378.1945190429688,0.0,8.718875,,0.0,405.0,,1,1,1,0,1
1789662432146.0,4.24,0.13668999,0.22941187,9.864112,0.00030543236,-0.00030543236,0.00045814854,-60.375004,2.4,7.5750003,9.867726156922227,0.0006296649408808392,0.1367556690506506,0.22944243405311315,9.864216096629724,11.05529994,76.92709541,378.1945190429688,0.0,8.718875,,0.0,405.0,,1,1,1,0,1
